SensorId, TimeStamp (s), FrameNumber, AccX (g), AccY (g), AccZ (g), GyroX (deg/s), GyroY (deg/s), GyroZ (deg/s), MagX (uT), MagY (uT), MagZ (uT), EulerX (deg), EulerY (deg), EulerZ (deg), QuatW, QuatX, QuatY, QuatZ, LinAccX (g), LinAccY (g), LinAccZ (g), Pressure (kPa), Altitude (m), Temperature (degC), HeaveMotion (m)
2, 0.0000, 0, 1.00023639, -0.07614566, 0.08684288, 2.13765287, 1.62133873, 0.04648279, 80.73662567, -3.77082729, 87.40134430, 131.72634888, 83.18260956, 82.37436676, 0.62907171, -0.33488059, -0.65372699, 0.25448936, -0.00729886, -0.01246216, -0.00795220, 0.00000000, 0.00000000, 0.00000000, 0.00000000
2, 0.0100, 1, 0.99453169, -0.07698058, 0.08302046, 1.51655531, 1.35445237, -0.32767746, 79.42121887, -3.42005253, 87.28441620, 131.84416199, 83.17602539, 82.47776031, 0.62894291, -0.33497521, -0.65377724, 0.25455430, -0.00161155, -0.01157015, -0.00384757, 0.00000000, 0.00000000, 0.00000000, 0.00000000
2, 0.0200, 2, 0.99487609, -0.08025048, 0.07822220, 0.75226861, 1.51601863, -0.66171104, 77.93042755, -4.09237051, 87.31365204, 131.98280334, 83.17082214, 82.60981750, 0.62881970, -0.33501244, -0.65386301, 0.25458920, -0.00196722, -0.00819542, 0.00120891, 0.00000000, 0.00000000, 0.00000000, 0.00000000
2, 0.0300, 3, 0.99862635, -0.08062232, 0.08615881, -1.57248425, 1.47608590, -0.97484887, 79.30429840, -3.59543991, 87.54750061, 132.20863342, 83.16918945, 82.85893250, 0.62870955, -0.33483899, -0.65409195, 0.25450125, -0.00572528, -0.00764074, -0.00642705, 0.00000000, 0.00000000, 0.00000000, 0.00000000
2, 0.0400, 4, 0.99441803, -0.07438664, 0.08417146, -3.24034476, 1.17887175, -1.40909350, 79.30429840, -3.59543991, 87.54750061, 132.32820129, 83.17165375, 83.01198578, 0.62870562, -0.33460701, -0.65426975, 0.25435919, -0.00151384, -0.01359723, -0.00417120, 0.00000000, 0.00000000, 0.00000000, 0.00000000
2, 0.0500, 5, 0.99153346, -0.08351085, 0.09026185, -2.62308383, 1.66849446, -2.16413665, 80.67816162, -4.44314528, 87.48903656, 132.52677917, 83.17633820, 83.23841095, 0.62863886, -0.33437654, -0.65448260, 0.25427938, 0.00137953, -0.00418452, -0.01005357, 0.00000000, 0.00000000, 0.00000000, 0.00000000
2, 0.0600, 6, 0.99266779, -0.07453553, 0.10100482, -3.52984405, 1.85025287, -2.67309976, 78.89505768, -5.52470016, 87.57672882, 132.75668335, 83.18349457, 83.50552368, 0.62857682, -0.33407125, -0.65474039, 0.25417042, 0.00025751, -0.01277554, -0.02053049, 0.00000000, 0.00000000, 0.00000000, 0.00000000
1, 0.0000, 0, -0.18753880, -0.96243519, -0.06592359, -15.83526611, -4.55581093, 7.49852943, -57.46857452, -30.19584846, -71.58725739, 90.93141174, -6.72985792, 82.05787659, -0.50069541, 0.56383932, 0.43606970, 0.49115452, 0.07085611, -0.03058610, 0.08304712, 0.00000000, 0.00000000, 0.00000000, 0.00000000
2, 0.0700, 7, 0.99047381, -0.07329386, 0.09756422, -2.84074306, 2.20016718, -3.27288818, 78.63198090, -3.77082729, 87.19672394, 133.04975891, 83.19251251, 83.82927704, 0.62846124, -0.33377719, -0.65501946, 0.25412351, 0.00246903, -0.01353125, -0.01678221, 0.00000000, 0.00000000, 0.00000000, 0.00000000
2, 0.0800, 8, 0.98947322, -0.08044238, 0.09678909, -2.25680494, 2.35817432, -3.63232231, 79.09967804, -3.44928384, 87.07980347, 133.45709229, 83.20040894, 84.26808929, 0.62826669, -0.33345678, -0.65538079, 0.25409374, 0.00348829, -0.00578791, -0.01559989, 0.00000000, 0.00000000, 0.00000000, 0.00000000
2, 0.0900, 9, 0.99398780, -0.07413799, 0.09218162, -3.25000310, 2.02253866, -3.92300129, 79.09967804, -3.44928384, 87.07980347, 133.77476501, 83.21487427, 84.62073517, 0.62815851, -0.33309910, -0.65567786, 0.25406411, -0.00100398, -0.01141353, -0.01054878, 0.00000000, 0.00000000, 0.00000000, 0.00000000
2, 0.1000, 10, 0.99748188, -0.07236347, 0.08831412, -3.76452994, 1.67040658, -4.34992981, 79.62583923, -2.83542824, 87.57672882, 134.09242249, 83.23461914, 84.97853851, 0.62807578, -0.33268079, -0.65597922, 0.25403857, -0.00446121, -0.01251342, -0.00642535, 0.00000000, 0.00000000, 0.00000000, 0.00000000
1, 0.0100, 1, -0.19675782, -0.96291155, -0.06134432, -15.33906078, -2.97913766, 9.23852634, -57.70242691, -29.11429405, -71.44110107, 90.78171539, -6.82178831, 82.02648163, -0.50116694, 0.56364763, 0.43482688, 0.49199468, 0.07859609, -0.02997636, 0.07586295, 0.00000000, 0.00000000, 0.00000000, 0.00000000
1, 0.0200, 2, -0.23483413, -0.94949484, -0.04508517, -14.90027714, -0.09946046, 11.43452644, -57.93627548, -28.96813774, -72.49342346, 90.63299561, -6.93610430, 82.02407074, -0.50141203, 0.56343323, 0.43361980, 0.49305463, 0.11485557, -0.04320971, 0.05700539, 0.00000000, 0.00000000, 0.00000000, 0.00000000
1, 0.0300, 3, -0.28961506, -0.94019526, -0.02372884, -11.42362785, 8.25849152, 14.42811680, -57.96550751, -28.93890572, -72.61034393, 90.50876617, -7.08118629, 82.10583496, -0.50103974, 0.56312299, 0.43277961, 0.49452356, 0.16732031, -0.05225176, 0.03332246, 0.00000000, 0.00000000, 0.00000000, 0.00000000
1, 0.0400, 4, -0.32912201, -0.95035845, 0.00588246, -8.49195385, 15.86341190, 17.67452240, -57.96550751, -28.93890572, -72.61034393, 90.40467834, -7.28342152, 82.24663544, -0.50006187, 0.56289309, 0.43203476, 0.49642268, 0.20386577, -0.04173585, 0.00176478, 0.00000000, 0.00000000, 0.00000000, 0.00000000
1, 0.0500, 5, -0.37973431, -0.96983272, 0.03667752, -4.07517719, 23.16358757, 20.70563316, -57.73165512, -28.06196976, -72.28880310, 90.33405304, -7.49194765, 82.47888184, -0.49848998, 0.56249017, 0.43185049, 0.49861595, 0.25072548, -0.02179076, -0.03048576, 0.00000000, 0.00000000, 0.00000000, 0.00000000
1, 0.0600, 6, -0.39285636, -1.00021350, 0.06362513, 2.81569743, 28.46687126, 24.84429169, -57.29319000, -30.25431061, -71.90879822, 90.32433319, -7.74201107, 82.76464844, -0.49619517, 0.56230712, 0.43198961, 0.50098515, 0.25981051, 0.00912033, -0.05800630, 0.00000000, 0.00000000, 0.00000000, 0.00000000
1, 0.0700, 7, -0.41712204, -1.01246893, 0.03124178, 7.51714611, 29.91365051, 28.50813675, -58.17012405, -28.88044357, -72.43495941, 90.35833740, -8.02886677, 83.06493378, -0.49344879, 0.56239581, 0.43221188, 0.50340062, 0.27936688, 0.02202139, -0.02531603, 0.00000000, 0.00000000, 0.00000000, 0.00000000
2, 0.1100, 11, 0.99906915, -0.07657403, 0.08735542, -4.36797810, 1.53876710, -4.60002422, 79.56737518, -2.89389062, 87.40134430, 134.41281128, 83.25688934, 85.34516907, 0.62801242, -0.33221215, -0.65629381, 0.25399595, -0.00600402, -0.00758182, -0.00525999, 0.00000000, 0.00000000, 0.00000000, 0.00000000
1, 0.0800, 8, -0.43622667, -1.02874172, -0.05474418, 9.99682808, 33.90056610, 33.60329056, -58.43320465, -28.67582512, -72.49342346, 90.40978241, -8.36715698, 83.40515900, -0.49019888, 0.56259924, 0.43245777, 0.50612980, 0.29296923, 0.03908054, 0.06146980, 0.00000000, 0.00000000, 0.00000000, 0.00000000
1, 0.0900, 9, -0.39793217, -1.06411564, -0.15230967, 10.34998703, 36.27974701, 37.87804413, -58.43320465, -28.67582512, -72.49342346, 90.45031738, -8.75802040, 83.76931763, -0.48664388, 0.56285983, 0.43251884, 0.50920933, 0.24830826, 0.07540363, 0.15989032, 0.00000000, 0.00000000, 0.00000000, 0.00000000
2, 0.1200, 12, 0.99664837, -0.08271331, 0.09262891, -4.61912680, 1.95878577, -5.11829424, 78.22274017, -2.98158431, 87.89827728, 134.78932190, 83.27949524, 85.77075958, 0.62792057, -0.33170924, -0.65665185, 0.25395507, -0.00353716, -0.00065514, -0.01028915, 0.00000000, 0.00000000, 0.00000000, 0.00000000
2, 0.1300, 13, 0.99669570, -0.08986773, 0.10862401, -6.80249166, 1.76964986, -5.79849434, 78.69043732, -3.18620276, 87.72288513, 135.23080444, 83.30080414, 86.29016113, 0.62784749, -0.33103117, -0.65713686, 0.25376573, -0.00353599, 0.00737306, -0.02598955, 0.00000000, 0.00000000, 0.00000000, 0.00000000
1, 0.1000, 10, -0.33379638, -1.06890631, -0.24270435, 9.25380325, 38.20235443, 41.58465958, -58.46243668, -27.68196487, -72.43495941, 90.48312378, -9.17697716, 84.15262604, -0.48289335, 0.56311792, 0.43250442, 0.51249611, 0.17706813, 0.08130033, 0.25085804, 0.00000000, 0.00000000, 0.00000000, 0.00000000
1, 0.1100, 11, -0.25740525, -1.04412055, -0.29982355, 5.30103827, 37.94534302, 43.40327454, -58.84244156, -27.76965714, -72.81496429, 90.47395325, -9.61418152, 84.53353119, -0.47925332, 0.56327528, 0.43220192, 0.51598316, 0.09321986, 0.05772810, 0.30809969, 0.00000000, 0.00000000, 0.00000000, 0.00000000
1, 0.1200, 12, -0.19327624, -0.98490655, -0.32514036, 0.32469326, 37.62960815, 42.55090714, -58.37474442, -27.65273285, -73.04881287, 90.41257477, -10.04261398, 84.91206360, -0.47589633, 0.56319267, 0.43169323, 0.51959395, 0.02164722, -0.00022381, 0.33270264, 0.00000000, 0.00000000, 0.00000000, 0.00000000
1, 0.1300, 13, -0.06241872, -0.89948559, -0.21103229, 0.49977416, 32.39906311, 40.86642456, -58.37474442, -27.65273285, -73.04881287, 90.35951996, -10.45343304, 85.23851776, -0.47279310, 0.56327796, 0.43104875, 0.52285910, -0.11643249, -0.08436736, 0.21748467, 0.00000000, 0.00000000, 0.00000000, 0.00000000
1, 0.1400, 14, 0.06032186, -0.85961646, -0.15589008, 1.31644261, 23.26934624, 33.66619873, -60.21630859, -27.62350082, -72.90265656, 90.31488800, -10.77490330, 85.49764252, -0.47034979, 0.56332004, 0.43054596, 0.52542543, -0.24540368, -0.12308856, 0.16165842, 0.00000000, 0.00000000, 0.00000000, 0.00000000
2, 0.1400, 14, 0.99554819, -0.07089528, 0.10461970, -9.35573292, 0.97748339, -6.21139717, 79.39199066, -3.18620276, 87.69365692, 135.57330322, 83.33740997, 86.72921753, 0.62792397, -0.33018383, -0.65757668, 0.25354114, -0.00233085, -0.01067620, -0.02176241, 0.00000000, 0.00000000, 0.00000000, 0.00000000
2, 0.1500, 15, 1.00394964, -0.06300536, 0.09444365, -9.97512913, 0.12855944, -6.64635754, 79.39199066, -3.18620276, 87.69365692, 135.89013672, 83.38292694, 87.14862061, 0.62805659, -0.32925847, -0.65799558, 0.25332907, -0.01064645, -0.01758237, -0.01165291, 0.00000000, 0.00000000, 0.00000000, 0.00000000
1, 0.1500, 15, 0.02788368, -0.84530276, -0.15498132, 3.09863925, 31.63615990, 27.98015213, -59.51476288, -28.17889404, -73.48728180, 90.28507233, -11.05635452, 85.81834412, -0.46772298, 0.56304365, 0.43060783, 0.52800941, -0.21794301, -0.13645580, 0.16005464, 0.00000000, 0.00000000, 0.00000000, 0.00000000
1, 0.1600, 16, 0.14221618, -0.86036479, -0.12180341, 5.61094141, 44.71709061, 17.93493080, -59.36860657, -26.77579689, -73.86728668, 90.25312042, -11.23779392, 86.27326965, -0.46493685, 0.56188053, 0.43180606, 0.53072351, -0.33609092, -0.12065064, 0.12634930, 0.00000000, 0.00000000, 0.00000000, 0.00000000
2, 0.1600, 16, 1.00990057, -0.04871794, 0.09156013, -9.84896469, -0.40478715, -6.54876661, 78.86582947, -3.06927800, 88.48290253, 136.17515564, 83.43128967, 87.53469086, 0.62821770, -0.32833353, -0.65837896, 0.25313392, -0.01650159, -0.03086617, -0.00894697, 0.00000000, 0.00000000, 0.00000000, 0.00000000
2, 0.1700, 17, 1.00667107, -0.04619654, 0.09010655, -9.06631279, -0.83936673, -6.30572319, 78.28120422, -3.21543407, 87.92750549, 136.43144226, 83.48088074, 87.88390350, 0.62838608, -0.32745549, -0.65871364, 0.25298268, -0.01317378, -0.03240871, -0.00774103, 0.00000000, 0.00000000, 0.00000000, 0.00000000
1, 0.1700, 17, 0.20918494, -0.85813558, -0.10514013, 6.83229351, 56.09873581, 5.60813427, -59.63168716, -28.12043190, -73.10727692, 90.20962524, -11.29614639, 86.84506226, -0.46222293, 0.55976361, 0.43411794, 0.53343832, -0.40484700, -0.12252814, 0.10902879, 0.00000000, 0.00000000, 0.00000000, 0.00000000
2, 0.1800, 18, 1.00346100, -0.04585919, 0.09478554, -8.17617798, -1.29665172, -5.71381092, 79.68430328, -3.21543407, 87.37211609, 136.72299194, 83.53388214, 88.26226807, 0.62853009, -0.32658464, -0.65904278, 0.25289354, -0.00986473, -0.03178937, -0.01270571, 0.00000000, 0.00000000, 0.00000000, 0.00000000
1, 0.1800, 18, 0.22660977, -0.86240000, -0.11947730, 6.77495432, 66.52870178, -5.89169502, -59.63168716, -28.12043190, -73.10727692, 90.14467621, -11.23930073, 87.52362061, -0.45963839, 0.55670667, 0.43739665, 0.53618515, -0.42206553, -0.11830811, 0.12240379, 0.00000000, 0.00000000, 0.00000000, 0.00000000
2, 0.1900, 19, 1.00699067, -0.04505218, 0.09272701, -9.74761009, -2.66337419, -4.59507608, 79.42121887, -3.01081562, 87.31365204, 136.76029968, 83.58481598, 88.39792633, 0.62885934, -0.32572675, -0.65924251, 0.25266066, -0.01328990, -0.03172268, -0.01109271, 0.00000000, 0.00000000, 0.00000000, 0.00000000
2, 0.2000, 20, 0.99618608, -0.03429361, 0.09228528, -9.26562881, -2.93348336, -3.82906866, 79.42121887, -3.01081562, 87.31365204, 136.73719788, 83.63243103, 88.46793365, 0.62920684, -0.32493311, -0.65939444, 0.25242102, -0.00238909, -0.04191256, -0.01129047, 0.00000000, 0.00000000, 0.00000000, 0.00000000
2, 0.2100, 21, 0.99381620, -0.04550599, 0.08121607, -7.54379034, -2.85953689, -3.38029957, 78.60274506, -3.06927800, 87.51826477, 136.70677185, 83.67636871, 88.51322174, 0.62951058, -0.32426131, -0.65949923, 0.25225350, 0.00006805, -0.03019830, -0.00082440, 0.00000000, 0.00000000, 0.00000000, 0.00000000
2, 0.2200, 22, 0.99259663, -0.07071354, 0.08042359, -7.29620075, -2.23259091, -2.93379426, 79.18737030, -3.33235884, 87.98596954, 136.68841553, 83.71275330, 88.56817627, 0.62978083, -0.32364237, -0.65961999, 0.25205788, 0.00136431, -0.00455717, -0.00057370, 0.00000000, 0.00000000, 0.00000000, 0.00000000
1, 0.1900, 19, 0.17446265, -0.88790888, -0.13205682, 5.67800856, 75.53875732, -16.69034195, -59.80707169, -26.92195320, -74.01344299, 90.04514313, -11.05747986, 88.31236267, -0.45727402, 0.55258733, 0.44162625, 0.53899360, -0.36768031, -0.09324528, 0.13356724, 0.00000000, 0.00000000, 0.00000000, 0.00000000
1, 0.2000, 20, 0.11273713, -0.92863297, -0.13393106, 4.58233213, 84.52133179, -25.81119728, -59.57322311, -28.85121346, -73.86728668, 89.92770386, -10.79917812, 89.17312622, -0.45499641, 0.54778314, 0.44644561, 0.54184717, -0.30187953, -0.05331559, 0.13347939, 0.00000000, 0.00000000, 0.00000000, 0.00000000
2, 0.2300, 23, 0.99486345, -0.06279235, 0.09033442, -8.82297611, -1.71685922, -2.72790790, 78.80736542, -2.80619693, 87.51826477, 136.76257324, 83.74714661, 88.73455811, 0.63002962, -0.32290152, -0.65985531, 0.25177020, -0.00083940, -0.01206511, -0.01088263, 0.00000000, 0.00000000, 0.00000000, 0.00000000
1, 0.2100, 21, 0.08874065, -0.96383220, -0.12828702, 3.48887658, 92.38193512, -33.68385315, -58.43320465, -27.65273285, -74.21806335, 89.78929901, -10.46004772, 90.11222839, -0.45280674, 0.54222065, 0.45187205, 0.54477012, -0.27256876, -0.01912076, 0.12557216, 0.00000000, 0.00000000, 0.00000000, 0.00000000
1, 0.2200, 22, 0.06993426, -0.99207819, -0.12538418, 3.15668869, 99.26050568, -39.78323364, -57.81935120, -28.79274940, -74.62730408, 89.64153290, -10.05729675, 91.11894989, -0.45061490, 0.53603405, 0.45780680, 0.54774690, -0.24723743, 0.00793788, 0.12019379, 0.00000000, 0.00000000, 0.00000000, 0.00000000
2, 0.2400, 24, 0.99958837, -0.03775302, 0.08311316, -9.03339386, -1.96537316, -2.12326002, 78.86582947, -4.18006420, 87.81057739, 136.69041443, 83.77599335, 88.75283051, 0.63035053, -0.32223934, -0.66000539, 0.25142205, -0.00550267, -0.03669257, -0.00404659, 0.00000000, 0.00000000, 0.00000000, 0.00000000
2, 0.2500, 25, 1.00248742, -0.03452858, 0.07571407, -9.17170334, -2.11911201, -0.99404418, 78.86582947, -4.18006420, 87.81057739, 136.53121948, 83.79821014, 88.68495178, 0.63070852, -0.32163101, -0.66011769, 0.25100794, -0.00835438, -0.03979436, 0.00287081, 0.00000000, 0.00000000, 0.00000000, 0.00000000
2, 0.2600, 26, 1.00276017, -0.03796949, 0.07640353, -7.78539896, -1.98501134, 0.08044598, 78.22274017, -2.80619693, 87.10903168, 136.32191467, 83.81201172, 88.55268860, 0.63104302, -0.32116362, -0.66017652, 0.25061071, -0.00859514, -0.03641323, 0.00171823, 0.00000000, 0.00000000, 0.00000000, 0.00000000
2, 0.2700, 27, 1.00617921, -0.03852379, 0.07821220, -8.08159542, -2.67018914, 1.23559093, 78.45658875, -3.21543407, 87.34288025, 135.98814392, 83.82279205, 88.29830170, 0.63145012, -0.32073128, -0.66017145, 0.25015187, -0.01199311, -0.03609702, -0.00058583, 0.00000000, 0.00000000, 0.00000000, 0.00000000
2, 0.2800, 28, 1.00476336, -0.03411417, 0.06758726, -7.72145176, -3.25581360, 2.48393154, 79.39199066, -3.24466538, 87.48903656, 135.61894226, 83.84460449, 88.00097656, 0.63189137, -0.32028651, -0.66010135, 0.24979198, -0.01055372, -0.04090007, 0.00935364, 0.00000000, 0.00000000, 0.00000000, 0.00000000
1, 0.2300, 23, 0.02407021, -1.01067960, -0.10866009, 3.07881260, 104.42321777, -44.11835098, -57.81935120, -28.79274940, -74.62730408, 89.49189758, -9.60821533, 92.17532349, -0.44838592, 0.52937490, 0.46410140, 0.55074686, -0.19392627, 0.02524424, 0.10088394, 0.00000000, 0.00000000, 0.00000000, 0.00000000
1, 0.2400, 24, -0.02383536, -1.03378808, -0.06704175, 3.73834705, 111.86092377, -46.80899429, -57.00087738, -29.28968048, -74.77346039, 89.34442902, -9.12510300, 93.30789185, -0.44591209, 0.52218491, 0.47082302, 0.55390531, -0.13793129, 0.04701655, 0.05668259, 0.00000000, 0.00000000, 0.00000000, 0.00000000
1, 0.2500, 25, -0.09399457, -1.04003465, -0.00594618, 5.36255121, 119.87347412, -48.73086166, -56.44548416, -28.17889404, -75.62116241, 89.21194458, -8.62268353, 94.51480865, -0.44306952, 0.51456410, 0.47793767, 0.55721527, -0.05920064, 0.05192421, -0.00681523, 0.00000000, 0.00000000, 0.00000000, 0.00000000
2, 0.2900, 29, 1.00375462, -0.03398068, 0.06907628, -4.77492666, -2.91890383, 3.45043230, 79.53814697, -3.39082146, 87.63519287, 135.15344238, 83.84119415, 87.58081055, 0.63226813, -0.32015830, -0.65994793, 0.24940820, -0.00952274, -0.04141747, 0.00719989, 0.00000000, 0.00000000, 0.00000000, 0.00000000
2, 0.3000, 30, 1.00562978, -0.03973380, 0.07183057, -5.14173889, -3.62258124, 4.70934200, 79.53814697, -3.39082146, 87.63519287, 134.55656433, 83.83334351, 87.03215027, 0.63272280, -0.32006690, -0.65972823, 0.24895339, -0.01141028, -0.03645867, 0.00381497, 0.00000000, 0.00000000, 0.00000000, 0.00000000
2, 0.3100, 31, 1.00470042, -0.03181875, 0.05799849, -3.52234411, -4.29432297, 5.73879766, 78.54428101, -2.80619693, 87.98596954, 133.86666870, 83.82215881, 86.37369537, 0.63319296, -0.32010940, -0.65940720, 0.24855360, -0.01049884, -0.04536889, 0.01686837, 0.00000000, 0.00000000, 0.00000000, 0.00000000
2, 0.3200, 32, 1.00967097, -0.04206437, 0.06834149, -0.43509120, -3.71549797, 6.55304098, 78.89505768, -3.01081562, 87.57672882, 133.19775391, 83.80023193, 85.70523071, 0.63356084, -0.32038179, -0.65902817, 0.24827017, -0.01550284, -0.03622768, 0.00582047, 0.00000000, 0.00000000, 0.00000000, 0.00000000
2, 0.3300, 33, 1.00390887, -0.04489530, 0.08272469, 0.89708829, -3.35734320, 7.56075144, 80.06430817, -3.44928384, 87.40134430, 132.62634277, 83.77526855, 85.12447357, 0.63384354, -0.32070261, -0.65868390, 0.24804796, -0.00979120, -0.03457483, -0.00914139, 0.00000000, 0.00000000, 0.00000000, 0.00000000
2, 0.3400, 34, 1.00347543, -0.05225158, 0.08564655, 1.55473340, -3.36588311, 8.00081444, 79.56737518, -3.06927800, 87.57672882, 131.92221069, 83.73874664, 84.40050507, 0.63416654, -0.32117552, -0.65823996, 0.24778888, -0.00941394, -0.02838252, -0.01257367, 0.00000000, 0.00000000, 0.00000000, 0.00000000
2, 0.3500, 35, 0.99384564, -0.08244136, 0.09130150, 1.60557699, -2.64556122, 7.97690344, 79.56737518, -3.06927800, 87.57672882, 131.27743530, 83.69668579, 83.73567200, 0.63444585, -0.32166532, -0.65783501, 0.24751373, 0.00013943, 0.00043661, -0.01871539, 0.00000000, 0.00000000, 0.00000000, 0.00000000
1, 0.2600, 26, -0.12780279, -1.04350972, 0.05342065, 9.37577057, 133.32147217, -49.06534195, -55.21777344, -29.81584358, -75.70885468, 89.11073303, -8.11249924, 95.85494232, -0.43943968, 0.50635791, 0.48571506, 0.56087017, -0.01663329, 0.05410873, -0.06816024, 0.00000000, 0.00000000, 0.00000000, 0.00000000
1, 0.2700, 27, -0.12004716, -1.05132318, 0.10078678, 13.89394188, 143.51487732, -49.27431488, -55.21777344, -29.81584358, -75.70885468, 89.05286407, -7.59670973, 97.29549408, -0.43511596, 0.49773329, 0.49403331, 0.56468296, -0.01550278, 0.06068639, -0.11685631, 0.00000000, 0.00000000, 0.00000000, 0.00000000
2, 0.3600, 36, 0.99700266, -0.07647789, 0.09372851, 0.06091963, -2.76937461, 7.38927174, 78.31043243, -3.74159598, 87.48903656, 130.65205383, 83.65902710, 83.10585785, 0.63476253, -0.32203305, -0.65747279, 0.24718580, -0.00309552, -0.00684825, -0.02158167, 0.00000000, 0.00000000, 0.00000000, 0.00000000
2, 0.3700, 37, 0.99968189, -0.07222199, 0.09264952, 0.23688969, -3.31829739, 6.23258257, 78.98274994, -3.01081562, 87.25518799, 130.06488037, 83.63301849, 82.51266479, 0.63508064, -0.32233214, -0.65710860, 0.24694738, -0.00583224, -0.01226168, -0.02105834, 0.00000000, 0.00000000, 0.00000000, 0.00000000
1, 0.2800, 28, -0.13017410, -1.04589236, 0.11928344, 17.87641907, 153.33633423, -48.88264084, -54.48699188, -29.02659988, -75.41654205, 89.03529358, -7.08226395, 98.83303833, -0.43009445, 0.48869938, 0.50281084, 0.56865901, 0.00355483, 0.05408382, -0.13594162, 0.00000000, 0.00000000, 0.00000000, 0.00000000
2, 0.3800, 38, 1.00143957, -0.08983286, 0.09472698, 0.16402751, -3.81347013, 4.97039700, 80.09353638, -3.27389646, 87.31365204, 129.61439514, 83.60956573, 82.06796265, 0.63534284, -0.32252055, -0.65686023, 0.24668758, -0.00763144, 0.00440519, -0.02368135, 0.00000000, 0.00000000, 0.00000000, 0.00000000
2, 0.3900, 39, 0.99922234, -0.09235031, 0.09512696, -1.44969749, -5.29531527, 3.49122715, 79.21660614, -2.95235300, 86.99210358, 129.03636169, 83.61609650, 81.50090790, 0.63576221, -0.32252625, -0.65649951, 0.24655995, -0.00543144, 0.00619328, -0.02472397, 0.00000000, 0.00000000, 0.00000000, 0.00000000
1, 0.2900, 29, -0.15305665, -1.04211462, 0.12450489, 22.43540955, 163.18885803, -47.39196014, -52.90850449, -30.37123680, -76.52732849, 89.06822205, -6.58208561, 100.46643829, -0.42427441, 0.47933337, 0.51201755, 0.57277298, 0.03520783, 0.04922199, -0.14094457, 0.00000000, 0.00000000, 0.00000000, 0.00000000
1, 0.3000, 30, -0.16622117, -1.04525495, 0.12978260, 27.24529648, 172.58721924, -45.44944763, -51.85618210, -30.02046204, -76.76117706, 89.14978790, -6.10070038, 102.19557953, -0.41764265, 0.46962586, 0.52160722, 0.57701999, 0.05683849, 0.05137652, -0.14512780, 0.00000000, 0.00000000, 0.00000000, 0.00000000
1, 0.3100, 31, -0.18746801, -1.04069316, 0.11634721, 31.26035309, 179.87266541, -43.20310974, -50.92078400, -30.10815430, -76.46886444, 89.27813721, -5.64390898, 103.99761963, -0.41029394, 0.45967892, 0.53143799, 0.58131570, 0.08619204, 0.04592831, -0.12978682, 0.00000000, 0.00000000, 0.00000000, 0.00000000
2, 0.4000, 40, 0.99093956, -0.09653167, 0.08620635, -0.97385097, -6.12241220, 1.39176428, 78.63198090, -2.95235300, 87.16749573, 128.52116394, 83.64359283, 80.99226379, 0.63617009, -0.32242015, -0.65614152, 0.24659921, 0.00288972, 0.00997528, -0.01684357, 0.00000000, 0.00000000, 0.00000000, 0.00000000
2, 0.4100, 41, 0.98681104, -0.11106710, 0.09939630, -1.36902463, -6.49961567, -0.81176144, 78.63198090, -3.27389646, 87.16749573, 128.09320068, 83.69023895, 80.57546234, 0.63656324, -0.32215774, -0.65583283, 0.24674876, 0.00709461, 0.02449738, -0.03115243, 0.00000000, 0.00000000, 0.00000000, 0.00000000
2, 0.4200, 42, 0.98768932, -0.11089248, 0.10385530, -2.40037322, -7.68029118, -3.04898715, 79.59661102, -3.68313360, 86.90441132, 127.68818665, 83.76148987, 80.19216156, 0.63700449, -0.32168439, -0.65554339, 0.24699663, 0.00633386, 0.02468025, -0.03688341, 0.00000000, 0.00000000, 0.00000000, 0.00000000
1, 0.3200, 32, -0.23698506, -1.02194488, 0.09509833, 33.81676483, 181.70822144, -39.36835098, -50.92078400, -30.10815430, -76.46886444, 89.44390869, -5.22991610, 105.81834412, -0.40245202, 0.44978434, 0.54116654, 0.58554691, 0.14319780, 0.02641333, -0.10588312, 0.00000000, 0.00000000, 0.00000000, 0.00000000
1, 0.3300, 33, -0.30418473, -0.99820483, 0.09885217, 35.49018097, 181.46617126, -35.36761093, -49.57614517, -30.98509216, -76.14732361, 89.63895416, -4.86167336, 107.63710785, -0.39424238, 0.44002804, 0.55066842, 0.58967155, 0.21709847, 0.00203499, -0.10643814, 0.00000000, 0.00000000, 0.00000000, 0.00000000
2, 0.4300, 43, 0.99081397, -0.10791898, 0.10734114, -2.70365834, -9.15327263, -5.37248802, 81.05816650, -3.88775206, 86.87518311, 127.34287262, 83.84673309, 79.88061523, 0.63745230, -0.32104698, -0.65531540, 0.24727567, 0.00337011, 0.02242435, -0.04185482, 0.00000000, 0.00000000, 0.00000000, 0.00000000
2, 0.4400, 44, 0.99188894, -0.10333146, 0.10472137, -4.01822186, -10.35337353, -7.40292645, 79.21660614, -3.53697753, 87.13825989, 126.94830322, 83.96830750, 79.52423859, 0.63799679, -0.32017642, -0.65503317, 0.24774757, 0.00248814, 0.01886999, -0.04084634, 0.00000000, 0.00000000, 0.00000000, 0.00000000
1, 0.3400, 34, -0.30900517, -0.99867463, 0.10466126, 37.46060562, 179.06704712, -31.49227333, -49.04998398, -30.78047371, -77.14118958, 89.86872864, -4.54327583, 109.42800903, -0.38576034, 0.43058181, 0.55987233, 0.59357488, 0.22779919, 0.00198643, -0.10849689, 0.00000000, 0.00000000, 0.00000000, 0.00000000
1, 0.3500, 35, -0.27004102, -0.99832630, 0.08884835, 37.24478531, 171.33213806, -28.23979187, -48.37766647, -30.54662323, -77.46273041, 90.10936737, -4.26050568, 111.14632416, -0.37740675, 0.42152986, 0.56856316, 0.59717059, 0.19396529, 0.00122595, -0.08852483, 0.00000000, 0.00000000, 0.00000000, 0.00000000
1, 0.3600, 36, -0.30029318, -0.97512686, 0.06712276, 35.38718414, 161.19361877, -23.36029434, -46.88687515, -31.42355919, -76.76117706, 90.34642029, -4.03330183, 112.76338196, -0.36928463, 0.41309220, 0.57651550, 0.60051107, 0.22856399, -0.02228591, -0.06262811, 0.00000000, 0.00000000, 0.00000000, 0.00000000
1, 0.3700, 37, -0.34178391, -0.96787977, 0.05821966, 34.36703491, 152.81060791, -17.24304962, -46.88687515, -31.42355919, -76.76117706, 90.58454132, -3.87325144, 114.29644012, -0.36122662, 0.40528592, 0.58380854, 0.60367733, 0.27329999, -0.02973433, -0.04960955, 0.00000000, 0.00000000, 0.00000000, 0.00000000
1, 0.3800, 38, -0.36380762, -0.95941710, 0.02847743, 32.72222137, 143.77441406, -10.16879082, -45.60070038, -31.56971550, -76.96579742, 90.81555176, -3.78913236, 115.73851013, -0.35325003, 0.39819232, 0.59037608, 0.60672361, 0.29727420, -0.03828536, -0.01576649, 0.00000000, 0.00000000, 0.00000000, 0.00000000
2, 0.4500, 45, 1.00008833, -0.08243170, 0.09954202, -4.08868933, -12.69814301, -9.94665241, 77.98889160, -3.39082146, 87.10903168, 126.50178528, 84.12396240, 79.11642456, 0.63862115, -0.31910536, -0.65469176, 0.24842213, -0.00545107, -0.00051713, -0.03777190, 0.00000000, 0.00000000, 0.00000000, 0.00000000
2, 0.4600, 46, 1.00394285, -0.07949038, 0.10090345, -3.82140160, -14.23867989, -11.30890274, 77.98889160, -3.39082146, 87.10903168, 125.99035645, 84.29933167, 78.64076233, 0.63929510, -0.31793717, -0.65429515, 0.24923022, -0.00900559, -0.00161574, -0.04156588, 0.00000000, 0.00000000, 0.00000000, 0.00000000
1, 0.3900, 39, -0.38073447, -0.94908565, -0.01122459, 29.89901352, 126.54576111, -2.73966241, -45.60070038, -31.62817764, -76.49810028, 91.02931976, -3.79306102, 116.99752045, -0.34581026, 0.39234784, 0.59583998, 0.60946965, 0.31476855, -0.04859818, 0.02778689, 0.00000000, 0.00000000, 0.00000000, 0.00000000
1, 0.4000, 40, -0.36396655, -0.95093572, -0.06039358, 26.41589165, 110.38407135, 3.35618663, -45.10377121, -33.20666504, -76.70272064, 91.21993256, -3.84827685, 118.10292053, -0.33897063, 0.38742983, 0.60043228, 0.61194617, 0.29729348, -0.04663732, 0.08043967, 0.00000000, 0.00000000, 0.00000000, 0.00000000
1, 0.4100, 41, -0.33836246, -0.95360178, -0.11987682, 21.15492821, 91.28852844, 9.36188507, -45.10377121, -33.20666504, -76.70272064, 91.36942291, -3.96251249, 119.01555634, -0.33296046, 0.38365859, 0.60392600, 0.61417979, 0.27008712, -0.04380082, 0.14280418, 0.00000000, 0.00000000, 0.00000000, 0.00000000
1, 0.4200, 42, -0.27085197, -0.94200718, -0.13704106, 15.15741062, 71.17841339, 15.52359200, -44.05144501, -31.65740967, -76.81964111, 91.47100830, -4.13536692, 119.72500610, -0.32786241, 0.38109469, 0.60627449, 0.61620164, 0.19994074, -0.05516137, 0.16204982, 0.00000000, 0.00000000, 0.00000000, 0.00000000
1, 0.4300, 43, -0.14088322, -0.95355803, -0.10213941, 10.36831856, 53.31904221, 19.05821228, -44.60683823, -31.86202812, -76.29347992, 91.53562164, -4.33987665, 120.25445557, -0.32366750, 0.37952793, 0.60771638, 0.61796349, 0.06655352, -0.04332721, 0.12847903, 0.00000000, 0.00000000, 0.00000000, 0.00000000
1, 0.4400, 44, 0.07171654, -1.01907086, -0.03052415, 7.12009573, 37.23839951, 17.65304375, -44.72376633, -31.94972229, -75.56269836, 91.57682800, -4.50154209, 120.64576721, -0.32052287, 0.37840074, 0.60871077, 0.61931348, -0.14936370, 0.02246074, 0.05770493, 0.00000000, 0.00000000, 0.00000000, 0.00000000
2, 0.4700, 47, 1.00202012, -0.06617729, 0.09802051, -3.60546446, -15.82277489, -12.04495239, 79.85968781, -3.68313360, 86.67056274, 125.36042023, 84.48941803, 78.04403687, 0.64003563, -0.31670371, -0.65382403, 0.25013492, -0.00676477, -0.01292034, -0.04136875, 0.00000000, 0.00000000, 0.00000000, 0.00000000
2, 0.4800, 48, 1.00060928, -0.05952414, 0.08757199, -2.71435022, -17.83562660, -12.90449905, 80.67816162, -3.24466538, 87.07980347, 124.63339996, 84.69657898, 77.34458160, 0.64081717, -0.31540221, -0.65328908, 0.25117365, -0.00501822, -0.01740578, -0.03391357, 0.00000000, 0.00000000, 0.00000000, 0.00000000
1, 0.4500, 45, 0.30566823, -1.09648347, 0.04231665, 5.64387083, 21.85984421, 11.00004768, -45.22069550, -31.86202812, -76.14732361, 91.61607361, -4.61758900, 120.86191559, -0.31858003, 0.37796056, 0.60926259, 0.62004179, -0.38553539, 0.10006762, -0.01445259, 0.00000000, 0.00000000, 0.00000000, 0.00000000
1, 0.4600, 46, 0.34532085, -1.13635445, 0.08439889, 3.74236417, 3.27245188, 4.77828312, -45.22069550, -31.86202812, -76.14732361, 91.65096283, -4.66627026, 120.89337921, -0.31802404, 0.37814146, 0.60939842, 0.62008339, -0.42640764, 0.14005528, -0.05589169, 0.00000000, 0.00000000, 0.00000000, 0.00000000
2, 0.4900, 49, 1.00032711, -0.05861604, 0.08573239, -3.04767871, -19.33758354, -13.29476643, 79.15814209, -4.26775789, 86.29055786, 123.66335297, 84.91514587, 76.40114594, 0.64171076, -0.31404933, -0.65263903, 0.25227508, -0.00439218, -0.01600573, -0.03529783, 0.00000000, 0.00000000, 0.00000000, 0.00000000
2, 0.5000, 50, 1.00705481, -0.05464737, 0.06596185, -4.19402695, -21.72976303, -13.61671734, 78.39812469, -2.51388478, 85.93978119, 122.37908173, 85.14775085, 75.15410614, 0.64276195, -0.31255972, -0.65188599, 0.25339362, -0.01077104, -0.01767117, -0.01919616, 0.00000000, 0.00000000, 0.00000000, 0.00000000
1, 0.4700, 47, 0.11644892, -1.10851550, 0.07121699, 1.45949793, -13.26847649, 5.42864180, -45.07453918, -32.94358444, -76.23501587, 91.67658234, -4.71666813, 120.75871277, -0.31838754, 0.37918830, 0.60892963, 0.61971802, -0.19829291, 0.11229239, -0.04221801, 0.00000000, 0.00000000, 0.00000000, 0.00000000
1, 0.4800, 48, -0.15844828, -1.08875656, 0.01989758, 0.66207922, -20.13942146, 12.21834564, -44.84069061, -31.68664169, -76.38117218, 91.70030212, -4.83286381, 120.55310059, -0.31877437, 0.38094422, 0.60800022, 0.61935467, 0.07507007, 0.09267231, 0.00949321, 0.00000000, 0.00000000, 0.00000000, 0.00000000
2, 0.5100, 51, 1.01217389, -0.04964980, 0.05924638, -3.39149070, -23.37229919, -14.00105000, 78.39812469, -2.51388478, 85.93978119, 120.82630920, 85.38954163, 73.63007355, 0.64387268, -0.31105530, -0.65102994, 0.25462279, -0.01553941, -0.02028347, -0.01650011, 0.00000000, 0.00000000, 0.00000000, 0.00000000
2, 0.5200, 52, 1.01467395, -0.05617687, 0.06496342, -3.47719312, -24.51712608, -14.24495029, 79.50891113, -2.54311609, 85.76439667, 118.98877716, 85.63527679, 71.82176971, 0.64504129, -0.30950490, -0.65011430, 0.25589034, -0.01769860, -0.01131601, -0.02645224, 0.00000000, 0.00000000, 0.00000000, 0.00000000
2, 0.5300, 53, 1.01822507, -0.04658142, 0.07216130, -3.82718992, -26.00791931, -14.23445988, 79.97661591, -1.72464192, 85.53054810, 116.81771851, 85.88323212, 69.68605042, 0.64627612, -0.30787781, -0.64915752, 0.25716349, -0.02092409, -0.01844360, -0.03809590, 0.00000000, 0.00000000, 0.00000000, 0.00000000
2, 0.5400, 54, 1.01828027, -0.02958684, 0.06197664, -2.47181964, -28.18980598, -14.20468330, 79.15814209, -2.22157264, 85.06284332, 114.01784515, 86.13262177, 66.90410614, 0.64761829, -0.30629995, -0.64800221, 0.25858089, -0.02066964, -0.03294788, -0.03264515, 0.00000000, 0.00000000, 0.00000000, 0.00000000
1, 0.4900, 49, -0.24243742, -1.08666384, -0.02063459, 2.50025606, -21.93327332, 19.58217812, -45.42531204, -33.11896896, -76.17655945, 91.73861694, -5.03434181, 120.31680298, -0.31880325, 0.38333809, 0.60676444, 0.61907458, 0.15616082, 0.09084476, 0.05062900, 0.00000000, 0.00000000, 0.00000000, 0.00000000
1, 0.5000, 50, -0.15628745, -1.05312264, -0.03204648, 4.22275114, -23.69401932, 24.23741531, -45.98070526, -32.68050385, -76.03040314, 91.80287933, -5.26928425, 120.07148743, -0.31860572, 0.38601732, 0.60551989, 0.61872995, 0.06602424, 0.05768447, 0.06293641, 0.00000000, 0.00000000, 0.00000000, 0.00000000
1, 0.5100, 51, -0.04511719, -1.02648127, -0.00851942, 4.31505013, -26.61206818, 25.97108078, -45.98070526, -32.68050385, -76.03040314, 91.87193298, -5.52032804, 119.79595947, -0.31846258, 0.38894445, 0.60413486, 0.61832422, -0.04943341, 0.03147821, 0.04057712, 0.00000000, 0.00000000, 0.00000000, 0.00000000
1, 0.5200, 52, -0.00869088, -1.00404561, 0.02685114, 4.28177404, -31.93199158, 27.39740944, -45.71762466, -31.65740967, -76.87810516, 91.94722748, -5.78350544, 119.46608734, -0.31852031, 0.39222822, 0.60254443, 0.61777186, -0.09034884, 0.00952092, 0.00646644, 0.00000000, 0.00000000, 0.00000000, 0.00000000
1, 0.5300, 53, -0.05076379, -0.97644889, 0.04523384, 3.93590474, -33.85811615, 28.87746620, -46.59456253, -32.73896408, -75.79654694, 92.02271271, -6.06037569, 119.11582184, -0.31860685, 0.39567846, 0.60082245, 0.61720401, -0.05299253, -0.01754943, -0.01059359, 0.00000000, 0.00000000, 0.00000000, 0.00000000
2, 0.5500, 55, 1.01591074, -0.04018565, 0.05876936, 0.78030288, -30.13326454, -14.43680191, 78.60274506, -1.87079799, 84.24436951, 110.60185242, 86.38066864, 63.47301865, 0.64897299, -0.30484641, -0.64666474, 0.26024523, -0.01800961, -0.01985496, -0.03456901, 0.00000000, 0.00000000, 0.00000000, 0.00000000
2, 0.5600, 56, 1.00944591, -0.05609855, 0.05669207, 1.77789855, -31.79274178, -14.87227535, 78.60274506, -1.87079799, 84.24436951, 106.46101379, 86.62295532, 59.30663681, 0.65037894, -0.30338439, -0.64521641, 0.26203245, -0.01127708, -0.00137699, -0.03790941, 0.00000000, 0.00000000, 0.00000000, 0.00000000
2, 0.5700, 57, 1.01033425, -0.04777553, 0.04358977, 2.52736688, -33.77297974, -15.59296131, 79.09967804, -1.95849168, 84.18591309, 101.38925171, 86.85573578, 54.20142365, 0.65185374, -0.30187607, -0.64365113, 0.26395252, -0.01192442, -0.00703153, -0.03053136, 0.00000000, 0.00000000, 0.00000000, 0.00000000
1, 0.5400, 54, -0.11349707, -0.95327300, 0.03543499, 3.52983832, -30.95887375, 30.01339531, -46.56533051, -31.94972229, -75.56269836, 92.09215546, -6.35107660, 118.79220581, -0.31848958, 0.39903057, 0.59909576, 0.61678463, 0.00479155, -0.04015406, 0.00039202, 0.00000000, 0.00000000, 0.00000000, 0.00000000
1, 0.5500, 55, -0.12883878, -0.95200056, 0.01174900, 4.39900589, -26.47817230, 29.84099197, -46.56533051, -31.94972229, -75.56269836, 92.16751099, -6.63946295, 118.51473999, -0.31811255, 0.40213576, 0.59755367, 0.61645842, 0.01508808, -0.04081603, 0.02531735, 0.00000000, 0.00000000, 0.00000000, 0.00000000
2, 0.5800, 58, 1.01722717, -0.06730382, 0.03857202, 4.26835585, -35.52655792, -16.75631523, 80.00584412, -3.06927800, 84.12744904, 95.29824829, 87.07179260, 48.06066513, 0.65334111, -0.30036110, -0.64198273, 0.26605785, -0.01860459, 0.01534019, -0.03155193, 0.00000000, 0.00000000, 0.00000000, 0.00000000
2, 0.5900, 59, 1.00962877, -0.06372129, 0.02785587, 3.61254621, -37.14555359, -18.42239571, 79.45045471, -1.31540489, 83.22128296, 87.92453766, 87.26679230, 40.64176559, 0.65489542, -0.29867050, -0.64025968, 0.26828256, -0.01082642, 0.01484006, -0.02714905, 0.00000000, 0.00000000, 0.00000000, 0.00000000
2, 0.6000, 60, 1.01650941, -0.05629456, 0.00612163, 3.11611390, -38.46015167, -19.83897591, 78.51505280, -1.81233561, 83.54282379, 79.22983551, 87.42126465, 31.90653610, 0.65649396, -0.29683748, -0.63850123, 0.27059105, -0.01756509, 0.01078262, -0.01200014, 0.00000000, 0.00000000, 0.00000000, 0.00000000
1, 0.5600, 56, -0.13774320, -0.96710676, -0.02069400, 5.68032455, -19.71612358, 29.98646736, -46.74071884, -32.53434753, -75.47500610, 92.24909973, -6.93151903, 118.30471039, -0.31732658, 0.40491566, 0.59625638, 0.61629987, 0.01896981, -0.02506950, 0.05912448, 0.00000000, 0.00000000, 0.00000000, 0.00000000
2, 0.6100, 61, 1.01647127, -0.04397044, 0.00607595, 2.14197659, -40.03304672, -21.08848763, 78.51505280, -1.81233561, 83.54282379, 69.22760010, 87.51591492, 21.87319565, 0.65816599, -0.29483750, -0.63669842, 0.27295351, -0.01743388, 0.00205059, -0.01881434, 0.00000000, 0.00000000, 0.00000000, 0.00000000
2, 0.6200, 62, 1.02820122, -0.02978824, 0.00278863, 1.94863677, -41.89578629, -22.59809303, 79.39199066, -0.81847411, 83.60128784, 58.22689056, 87.53307343, 10.84279823, 0.65989959, -0.29269332, -0.63482165, 0.27543527, -0.02912773, -0.00830315, -0.02268390, 0.00000000, 0.00000000, 0.00000000, 0.00000000
2, 0.6300, 63, 1.03118432, -0.03827405, -0.00088827, 3.84978700, -44.27598190, -24.30960464, 79.47968292, -0.93539900, 83.57205200, 46.87201309, 87.45742798, -0.56008786, 0.66165680, -0.29050040, -0.63280779, 0.27816194, -0.03214169, 0.00430295, -0.02656269, 0.00000000, 0.00000000, 0.00000000, 0.00000000
2, 0.6400, 64, 1.03435636, -0.03797106, -0.00783479, 4.43618488, -46.01846313, -25.98617363, 78.89505768, 0.11692487, 82.84127045, 36.02568817, 87.28368378, -11.46215725, 0.66344780, -0.28820139, -0.63069499, 0.28107104, -0.03542084, 0.00838585, -0.02746145, 0.00000000, 0.00000000, 0.00000000, 0.00000000
1, 0.5700, 57, -0.10950044, -0.96509004, -0.03505904, 7.97192287, -14.96681595, 29.76259232, -47.61765671, -31.94972229, -76.03040314, 92.34886169, -7.22291470, 118.14198303, -0.31622145, 0.40748823, 0.59521633, 0.61617774, -0.01434603, -0.02640394, 0.07505252, 0.00000000, 0.00000000, 0.00000000, 0.00000000
1, 0.5800, 58, -0.13814692, -0.96637738, -0.00481017, 9.30966949, -13.58337784, 29.58248329, -47.99766159, -32.38819122, -75.97193909, 92.46111298, -7.51278639, 117.99263763, -0.31500372, 0.41001022, 0.59428751, 0.61602479, 0.00928226, -0.02440067, 0.04665024, 0.00000000, 0.00000000, 0.00000000, 0.00000000
1, 0.5900, 59, -0.22843508, -0.96265322, 0.01461607, 9.08954906, -9.17978668, 29.74687386, -48.02689362, -31.13124847, -74.74422455, 92.56266022, -7.82299471, 117.87282562, -0.31354693, 0.41244254, 0.59332860, 0.61606872, 0.09444925, -0.02736487, 0.02908093, 0.00000000, 0.00000000, 0.00000000, 0.00000000
1, 0.6000, 60, -0.31696081, -0.98437852, 0.02889817, 9.61416912, -2.44410205, 30.75353432, -48.02689362, -31.13124847, -74.74422455, 92.66416168, -8.12910271, 117.83401489, -0.31167287, 0.41442761, 0.59266919, 0.61632216, 0.17756419, -0.00481661, 0.01647969, 0.00000000, 0.00000000, 0.00000000, 0.00000000
2, 0.6500, 65, 1.04021811, -0.03082311, -0.01440624, 3.12417674, -47.72092438, -27.67552757, 78.98274994, -0.40923706, 82.31510925, 26.32415771, 87.01773834, -21.20688629, 0.66530907, -0.28568518, -0.62854421, 0.28404230, -0.04147859, 0.00592890, -0.02909721, 0.00000000, 0.00000000, 0.00000000, 0.00000000
2, 0.6600, 66, 1.03793812, -0.04835292, -0.01483935, -1.31405270, -47.79278564, -28.87512779, 79.24583435, -0.40923706, 81.90587616, 18.15809059, 86.68391418, -29.37208748, 0.66723949, -0.28283691, -0.62651455, 0.28683504, -0.03948545, 0.02841355, -0.03699821, 0.00000000, 0.00000000, 0.00000000, 0.00000000
1, 0.6100, 61, -0.30408645, -1.01641786, 0.00920209, 10.34532642, 2.81775475, 30.87642479, -48.37766647, -31.13124847, -75.00730896, 92.76560974, -8.43886375, 117.84768677, -0.30949107, 0.41615257, 0.59218299, 0.61672652, 0.15936294, 0.02806629, 0.03784727, 0.00000000, 0.00000000, 0.00000000, 0.00000000
2, 0.6700, 67, 1.04540026, -0.06555550, -0.00882288, -7.31248617, -48.74160767, -30.74321938, 79.24583435, 0.55539316, 81.90587616, 11.22334194, 86.28967285, -36.24660492, 0.66930658, -0.27950647, -0.62461036, 0.28942490, -0.04732941, 0.05088922, -0.05143895, 0.00000000, 0.00000000, 0.00000000, 0.00000000
2, 0.6800, 68, 1.06712306, -0.05477262, -0.01865255, -12.35209179, -50.08522415, -32.76715469, 79.09967804, 0.61385560, 81.05816650, 5.36523962, 85.84303284, -41.99283600, 0.67149580, -0.27573788, -0.62280250, 0.29185465, -0.06954483, 0.04579118, -0.05025627, 0.00000000, 0.00000000, 0.00000000, 0.00000000
1, 0.6200, 62, -0.24252398, -1.01530027, -0.00886779, 13.39443111, 8.81868267, 31.64287186, -48.55305481, -32.35895920, -75.47500610, 92.88857269, -8.75926495, 117.92100525, -0.30684438, 0.41767287, 0.59198993, 0.61720639, 0.09229176, 0.02786632, 0.05787474, 0.00000000, 0.00000000, 0.00000000, 0.00000000
1, 0.6300, 63, -0.23911475, -0.98287398, 0.00174490, 15.16072559, 11.13506508, 30.15131569, -49.22537231, -31.33586693, -74.86115265, 93.02516937, -9.06612873, 118.01781464, -0.30409110, 0.41903469, 0.59200275, 0.61763358, 0.08351056, -0.00361528, 0.04947656, 0.00000000, 0.00000000, 0.00000000, 0.00000000
2, 0.6900, 69, 1.09735024, -0.04690807, -0.03850492, -19.44803238, -51.63355637, -34.46014023, 78.66120911, 0.84770536, 80.70739746, 0.36707169, 85.34422302, -46.81069946, 0.67388117, -0.27140558, -0.62109166, 0.29405499, -0.10038831, 0.04400890, -0.03927245, 0.00000000, 0.00000000, 0.00000000, 0.00000000
2, 0.7000, 70, 1.14308298, -0.04474662, -0.10172190, -29.00821304, -53.36927414, -35.75509262, 78.57351685, 1.02309263, 80.21046448, -3.87961030, 84.79951477, -50.78191757, 0.67653024, -0.26638690, -0.61953312, 0.29584405, -0.14688089, 0.04835784, 0.01478626, 0.00000000, 0.00000000, 0.00000000, 0.00000000
2, 0.7100, 71, 1.20767796, -0.04918935, -0.23882902, -43.11904144, -57.41320038, -36.59331512, 79.30429840, 1.34463608, 80.15200043, -7.50044060, 84.19176483, -53.98625565, 0.67967445, -0.26037353, -0.61809289, 0.29700100, -0.21241356, 0.05970332, 0.14225587, 0.00000000, 0.00000000, 0.00000000, 0.00000000
2, 0.7200, 72, 1.19472361, -0.07510921, -0.31685981, -75.44628143, -62.88778305, -37.94670868, 79.30429840, 1.34463608, 80.15200043, -10.80504704, 83.51042175, -56.55112457, 0.68376797, -0.25221062, -0.61715484, 0.29659924, -0.20063938, 0.09325340, 0.20983952, 0.00000000, 0.00000000, 0.00000000, 0.00000000
1, 0.6400, 64, -0.22830170, -0.96839422, -0.00369390, 17.93618584, 13.75100994, 28.90977669, -49.42998886, -32.85588837, -74.36421967, 93.17952728, -9.36802578, 118.13729095, -0.30117190, 0.42029458, 0.59221172, 0.61800742, 0.06747702, -0.01712230, 0.05745229, 0.00000000, 0.00000000, 0.00000000, 0.00000000
1, 0.6500, 65, -0.27250850, -0.96585482, -0.00650726, 17.93066025, 16.15225029, 26.31487465, -49.42998886, -32.85588837, -74.36421967, 93.33432007, -9.63993740, 118.28563690, -0.29825884, 0.42125267, 0.59263510, 0.61836201, 0.10677765, -0.01870206, 0.06288862, 0.00000000, 0.00000000, 0.00000000, 0.00000000
1, 0.6600, 66, -0.31030133, -0.97284532, -0.03209266, 18.56673241, 21.25591850, 23.70370293, -49.83922958, -31.54048538, -73.89652252, 93.48588562, -9.88921356, 118.48664856, -0.29519629, 0.42181256, 0.59331566, 0.61879706, 0.14012514, -0.01080315, 0.09103251, 0.00000000, 0.00000000, 0.00000000, 0.00000000
2, 0.7300, 73, 1.20666027, -0.08701216, -0.25292391, -73.15417480, -61.80755234, -41.81728745, 78.48582458, 2.10464764, 80.12277222, -13.82036591, 82.81676483, -58.85224915, 0.68760639, -0.24400117, -0.61624008, 0.29649457, -0.21395589, 0.11358087, 0.13537580, 0.00000000, 0.00000000, 0.00000000, 0.00000000
1, 0.6700, 67, -0.25377664, -0.98271137, -0.03719154, 19.57238579, 22.08376122, 20.07537842, -49.60537720, -31.68664169, -74.65653229, 93.64495087, -10.10330772, 118.69778442, -0.29224691, 0.42216152, 0.59419966, 0.61911082, 0.07968381, -0.00009057, 0.09875682, 0.00000000, 0.00000000, 0.00000000, 0.00000000
1, 0.6800, 68, -0.23017147, -0.99320120, -0.01340948, 19.58899307, 18.82620049, 17.38850594, -49.80999756, -31.45279121, -74.39344788, 93.80908203, -10.28905392, 118.87718964, -0.28960848, 0.42254391, 0.59509522, 0.61922967, 0.05272595, 0.01117514, 0.07772480, 0.00000000, 0.00000000, 0.00000000, 0.00000000
1, 0.6900, 69, -0.23086628, -1.00382137, 0.00375900, 19.53745079, 16.58432388, 16.59751129, -49.80999756, -31.45279121, -74.39344788, 93.96962738, -10.47053528, 119.03154755, -0.28713951, 0.42302012, 0.59589523, 0.61928487, 0.05032346, 0.02254652, 0.06334226, 0.00000000, 0.00000000, 0.00000000, 0.00000000
1, 0.7000, 70, -0.21568465, -1.00437176, 0.02117333, 19.60670280, 14.76193142, 15.64795971, -49.92692184, -31.16047859, -73.80883026, 94.14032745, -10.63705254, 119.17009735, -0.28480145, 0.42352587, 0.59674525, 0.61920029, 0.03215381, 0.02384484, 0.04869752, 0.00000000, 0.00000000, 0.00000000, 0.00000000
1, 0.7100, 71, -0.19735157, -0.99571466, 0.04391627, 18.89150047, 11.59454060, 14.73629189, -50.24846649, -31.39432907, -73.28266144, 94.30942535, -10.79254341, 119.27672577, -0.28270245, 0.42413515, 0.59750807, 0.61900955, 0.01109158, 0.01591179, 0.02883370, 0.00000000, 0.00000000, 0.00000000, 0.00000000
1, 0.7200, 72, -0.20716678, -0.99348038, 0.05352618, 17.42967987, 7.88034058, 14.36711979, -50.42385101, -33.00204468, -73.25343323, 94.47074890, -10.94181633, 119.34553528, -0.28086975, 0.42488763, 0.59811103, 0.61874551, 0.01830503, 0.01438515, 0.02198975, 0.00000000, 0.00000000, 0.00000000, 0.00000000
2, 0.7400, 74, 1.27803624, -0.13461766, -0.14652286, -75.86426544, -61.52528763, -46.37944412, 78.04735565, 2.36772871, 79.65506744, -16.73457718, 82.10091400, -61.02659988, 0.69129956, -0.23535205, -0.61547136, 0.29649526, -0.28689158, 0.17046325, 0.01872841, 0.00000000, 0.00000000, 0.00000000, 0.00000000
2, 0.7500, 75, 1.31513739, -0.15274280, -0.08442080, -82.45958710, -62.00667953, -51.85128403, 77.40426636, 2.86465931, 78.89505768, -19.61692047, 81.34989929, -63.10596848, 0.69494671, -0.22597638, -0.61489767, 0.29645339, -0.32578486, 0.19903877, -0.05349384, 0.00000000, 0.00000000, 0.00000000, 0.00000000
2, 0.7600, 76, 1.35295010, -0.16465977, -0.04851585, -88.11738586, -62.17293167, -57.93909454, 77.87196350, 3.53697753, 78.60274506, -22.49203491, 80.56141663, -65.12500763, 0.69848186, -0.21590234, -0.61451411, 0.29644844, -0.36565256, 0.22269954, -0.09931887, 0.00000000, 0.00000000, 0.00000000, 0.00000000
2, 0.7700, 77, 1.34657812, -0.15459056, -0.00699656, -94.48111725, -63.45231247, -63.97852707, 77.87196350, 3.53697753, 78.60274506, -25.32306480, 79.72188568, -67.03947449, 0.70196408, -0.20505716, -0.61425614, 0.29645827, -0.36165473, 0.22571024, -0.15062615, 0.00000000, 0.00000000, 0.00000000, 0.00000000
2, 0.7800, 78, 1.34217465, -0.12094459, 0.04703334, -99.76186371, -64.97494507, -70.01390839, 77.46273041, 4.12160206, 77.98889160, -28.07734871, 78.83164215, -68.82447815, 0.70536369, -0.19350889, -0.61408901, 0.29649815, -0.36000210, 0.20646609, -0.21435782, 0.00000000, 0.00000000, 0.00000000, 0.00000000
1, 0.7300, 73, -0.21987633, -0.98693168, 0.06895898, 17.59703255, 6.07070446, 14.27434921, -49.66384125, -31.97895241, -73.86728668, 94.63713837, -11.08892632, 119.39563751, -0.27912909, 0.42573524, 0.59867942, 0.61840069, 0.02848060, 0.00854652, 0.00932998, 0.00000000, 0.00000000, 0.00000000, 0.00000000
1, 0.7400, 74, -0.21991996, -0.97312921, 0.08383897, 17.04187584, 6.12959337, 12.70667648, -49.66384125, -31.97895241, -73.86728668, 94.79873657, -11.22423649, 119.44383240, -0.27748248, 0.42652068, 0.59925604, 0.61804199, 0.02613885, -0.00456363, -0.00281699, 0.00000000, 0.00000000, 0.00000000, 0.00000000
1, 0.7500, 75, -0.20669085, -0.97145438, 0.10529431, 17.14127922, 4.13924360, 10.75317383, -50.24846649, -31.24817276, -73.42881775, 94.96373749, -11.33489227, 119.47656250, -0.27604765, 0.42727402, 0.59987956, 0.61755908, 0.01083252, -0.00559117, -0.02150574, 0.00000000, 0.00000000, 0.00000000, 0.00000000
2, 0.7900, 79, 1.32876563, -0.12077035, 0.10267760, -104.42153168, -65.52278900, -74.86331940, 75.88424683, 5.14469433, 78.86582947, -30.72652435, 77.89318848, -70.46305847, 0.70864540, -0.18135902, -0.61397302, 0.29659364, -0.34973478, 0.22186103, -0.27945849, 0.00000000, 0.00000000, 0.00000000, 0.00000000
2, 0.8000, 80, 1.29420638, -0.11278803, 0.13168871, -107.90631104, -66.65164948, -78.92897797, 76.46886444, 5.58316278, 78.04735565, -33.22213364, 76.90972137, -71.91448212, 0.71182126, -0.16871692, -0.61384094, 0.29672298, -0.31875262, 0.23046306, -0.31773213, 0.00000000, 0.00000000, 0.00000000, 0.00000000
1, 0.7600, 76, -0.22082181, -0.95958018, 0.12181370, 16.57299423, 3.51636767, 9.61238384, -49.89768982, -31.89126015, -72.87342834, 95.12411499, -11.43372917, 119.50367737, -0.27472720, 0.42798626, 0.60049814, 0.61705327, 0.02321329, -0.01687227, -0.03526460, 0.00000000, 0.00000000, 0.00000000, 0.00000000
1, 0.7700, 77, -0.24011731, -0.95482457, 0.09682021, 15.83047199, 6.53119087, 8.62178040, -50.01461411, -32.24203491, -72.69804382, 95.27079010, -11.52550888, 119.56210327, -0.27332899, 0.42846525, 0.60118437, 0.61667359, 0.04089045, -0.02107011, -0.00772631, 0.00000000, 0.00000000, 0.00000000, 0.00000000
2, 0.8100, 81, 1.22934389, -0.11329588, 0.15276423, -112.13319397, -67.37303925, -81.44329834, 76.20578766, 6.10932446, 78.10581970, -35.54928589, 75.89375305, -73.15502167, 0.71490759, -0.15562926, -0.61370325, 0.29674077, -0.25790331, 0.24834640, -0.34778422, 0.00000000, 0.00000000, 0.00000000, 0.00000000
2, 0.8200, 82, 1.16368413, -0.06617509, 0.14255248, -117.81165314, -67.87125397, -82.55335999, 76.20578766, 6.10932446, 78.10581970, -37.71458435, 74.85649872, -74.17517853, 0.71793526, -0.14208591, -0.61358219, 0.29647499, -0.19666608, 0.21916685, -0.34611261, 0.00000000, 0.00000000, 0.00000000, 0.00000000
1, 0.7800, 78, -0.24843346, -0.97009897, 0.06757919, 15.42244339, 11.51790619, 7.21989012, -50.24846649, -32.82666016, -73.13651276, 95.40290070, -11.60812187, 119.67231750, -0.27175900, 0.42859131, 0.60201800, 0.61646652, 0.04774841, -0.00528181, 0.02383873, 0.00000000, 0.00000000, 0.00000000, 0.00000000
1, 0.7900, 79, -0.22466981, -0.97991407, 0.05145879, 15.70509720, 16.11941338, 6.74176121, -50.24846649, -32.82666016, -73.13651276, 95.52053833, -11.69310474, 119.82945251, -0.26997614, 0.42844445, 0.60294122, 0.61644965, 0.02255321, 0.00502768, 0.04205523, 0.00000000, 0.00000000, 0.00000000, 0.00000000
2, 0.8300, 83, 1.12602639, -0.00715668, 0.12366682, -124.33668518, -68.35987091, -81.85733032, 74.59806824, 5.17392588, 77.75504303, -39.71682739, 73.81790161, -74.95837402, 0.72093290, -0.12813647, -0.61351019, 0.29570624, -0.16380009, 0.17838849, -0.33525011, 0.00000000, 0.00000000, 0.00000000, 0.00000000
2, 0.8400, 84, 1.08799446, 0.01408380, 0.10615352, -137.16198730, -66.64405060, -79.44850922, 73.92575073, 7.62934828, 77.81350708, -41.64987183, 72.79470825, -75.54444122, 0.72390127, -0.11351953, -0.61367798, 0.29407400, -0.13081288, 0.17555903, -0.32480171, 0.00000000, 0.00000000, 0.00000000, 0.00000000
2, 0.8500, 85, 1.04238605, 0.00196904, 0.08609875, -161.58930969, -62.72268295, -74.37113953, 74.07190704, 9.03244686, 78.83659363, -43.65036392, 71.82959747, -75.94806671, 0.72685087, -0.09770363, -0.61451942, 0.29070219, -0.09034055, 0.20624666, -0.31020737, 0.00000000, 0.00000000, 0.00000000, 0.00000000
2, 0.8600, 86, 1.01147115, -0.12912673, 0.11635751, -204.33692932, -54.55579376, -68.71585083, 74.24729156, 9.50014591, 79.24583435, -46.00234222, 70.95827484, -76.27372742, 0.72963208, -0.07965452, -0.61671835, 0.28451854, -0.06442340, 0.35648125, -0.34302646, 0.00000000, 0.00000000, 0.00000000, 0.00000000
2, 0.8700, 87, 0.93117571, -0.52151072, 0.43935326, -280.32525635, -40.40613174, -54.25178146, 74.24729156, 9.50014591, 79.24583435, -49.00502777, 70.28551483, -76.48514557, 0.73216772, -0.05785771, -0.62129557, 0.27308378, 0.01159176, 0.76859474, -0.66319191, 0.00000000, 0.00000000, 0.00000000, 0.00000000
1, 0.8000, 80, -0.22474930, -0.98582232, 0.03518953, 15.02030277, 16.95383072, 6.41348267, -49.19614029, -31.77433395, -72.96112061, 95.63697815, -11.77341747, 119.99542999, -0.26817691, 0.42822278, 0.60390753, 0.61644310, 0.02122350, 0.01141724, 0.06026515, 0.00000000, 0.00000000, 0.00000000, 0.00000000
2, 0.8800, 88, 0.88131881, -0.61499387, 0.64405137, -361.82919312, -29.68744469, -43.15232086, 73.07804871, 9.90938282, 80.03507996, -52.74702835, 69.77373505, -76.61031342, 0.73418444, -0.03168552, -0.62797695, 0.25615263, 0.05808726, 0.88246936, -0.85835600, 0.00000000, 0.00000000, 0.00000000, 0.00000000
1, 0.8100, 81, -0.25305027, -1.00151455, 0.02787164, 13.78943062, 18.56840134, 6.20843506, -50.48231506, -31.65740967, -72.90265656, 95.73751068, -11.85359764, 120.17791748, -0.26634848, 0.42787287, 0.60485059, 0.61655426, 0.04814847, 0.02757232, 0.06934568, 0.00000000, 0.00000000, 0.00000000, 0.00000000
2, 0.8900, 89, 0.81142676, -0.52218384, 0.75891107, -412.39541626, -21.45738983, -35.61729813, 71.85033417, 9.90938282, 82.43203735, -56.95220566, 69.35899353, -76.69711304, 0.73522002, -0.00281695, -0.63550991, 0.23573454, 0.12528846, 0.81015313, -0.95786440, 0.00000000, 0.00000000, 0.00000000, 0.00000000
2, 0.9000, 90, 0.77977037, -0.39294371, 0.83517617, -420.98590088, -15.26029587, -29.88973236, 72.20111084, 10.40631390, 84.44898987, -61.22270203, 69.02415466, -76.76210022, 0.73505306, 0.02616062, -0.64276737, 0.21415623, 0.15469730, 0.70009971, -1.01508892, 0.00000000, 0.00000000, 0.00000000, 0.00000000
1, 0.8200, 82, -0.22943927, -1.00538874, 0.03720654, 13.17201710, 18.34086418, 5.88866138, -50.01461411, -32.50511551, -73.13651276, 95.83205414, -11.93067074, 120.35831451, -0.26457119, 0.42750216, 0.60576451, 0.61667943, 0.02320563, 0.03189033, 0.06162729, 0.00000000, 0.00000000, 0.00000000, 0.00000000
2, 0.9100, 91, 0.76748520, -0.27001178, 0.83379281, -388.08645630, -11.99577713, -23.05932426, 72.66880798, 9.20783424, 86.58287048, -65.09660339, 68.76434326, -76.75473022, 0.73398411, 0.05255128, -0.64882815, 0.19372085, 0.16518757, 0.59331214, -0.99364328, 0.00000000, 0.00000000, 0.00000000, 0.00000000
2, 0.9200, 92, 0.76554435, -0.20491464, 0.75186926, -332.22192383, -9.40026569, -13.82952785, 72.66880798, 9.20783424, 88.07366180, -68.33842468, 68.60034180, -76.66847992, 0.73244798, 0.07474656, -0.65350711, 0.17567414, 0.16585305, 0.54038537, -0.89303035, 0.00000000, 0.00000000, 0.00000000, 0.00000000
1, 0.8300, 83, -0.23866288, -1.00522625, 0.05754646, 12.40509224, 18.24880409, 6.08266163, -50.01461411, -32.50511551, -73.13651276, 95.91893005, -12.00986481, 120.53752899, -0.26281577, 0.42712712, 0.60662520, 0.61684370, 0.03109349, 0.03216504, 0.04278568, 0.00000000, 0.00000000, 0.00000000, 0.00000000
2, 0.9300, 93, 0.77675009, -0.17930219, 0.64574283, -269.21588135, -8.98428631, -3.57094145, 71.70417786, 9.44168377, 88.07366180, -70.87991333, 68.54951477, -76.49175262, 0.73088622, 0.09228367, -0.65695643, 0.16030417, 0.15402740, 0.52276117, -0.77092350, 0.00000000, 0.00000000, 0.00000000, 0.00000000
2, 0.9400, 94, 0.78130603, -0.14962652, 0.54355299, -205.83477783, -9.79604912, 6.16701460, 72.23033905, 8.44782257, 89.44753265, -72.65292358, 68.57764435, -76.18519592, 0.72975636, 0.10517899, -0.65915656, 0.14800575, 0.14949098, 0.49734634, -0.65624225, 0.00000000, 0.00000000, 0.00000000, 0.00000000
2, 0.9500, 95, 0.78080893, -0.16628261, 0.45383903, -146.42585754, -10.18400192, 16.99824333, 72.31803131, 8.38935947, 89.91522980, -73.74303436, 68.71109772, -75.78346252, 0.72915506, 0.11364784, -0.66050285, 0.13839480, 0.15057683, 0.51510894, -0.55794126, 0.00000000, 0.00000000, 0.00000000, 0.00000000
2, 0.9600, 96, 0.78238666, -0.22923858, 0.38311169, -97.99295044, -10.14815235, 30.28461647, 72.61034393, 6.75241137, 90.20754242, -74.25611115, 68.97438812, -75.28285217, 0.72910231, 0.11825484, -0.66131663, 0.13071324, 0.15034494, 0.57601947, -0.48186600, 0.00000000, 0.00000000, 0.00000000, 0.00000000
2, 0.9700, 97, 0.77389753, -0.29149792, 0.31695592, -59.29560471, -9.93733311, 45.22979355, 72.43495941, 7.16164875, 90.96755219, -74.27587128, 69.38294983, -74.66958618, 0.72956222, 0.11952762, -0.66181546, 0.12430808, 0.16103721, 0.63308221, -0.41294083, 0.00000000, 0.00000000, 0.00000000, 0.00000000
1, 0.8400, 84, -0.22576414, -0.98997098, 0.08777297, 11.86727905, 18.52496910, 6.04528666, -50.42385101, -31.54048538, -73.48728180, 95.99787140, -12.09084511, 120.71858215, -0.26106876, 0.42672992, 0.60744387, 0.61705476, 0.01683098, 0.01734315, 0.01392176, 0.00000000, 0.00000000, 0.00000000, 0.00000000
1, 0.8500, 85, -0.20965600, -0.97000170, 0.11282641, 11.06501675, 18.39780807, 6.25558567, -50.42385101, -31.30663490, -73.31189728, 96.07060242, -12.17239380, 120.89899445, -0.25934410, 0.42632213, 0.60822475, 0.61729473, -0.00066950, -0.00219509, -0.00988782, 0.00000000, 0.00000000, 0.00000000, 0.00000000
1, 0.8600, 86, -0.20325448, -0.96131390, 0.11354245, 9.95137787, 17.60773087, 6.40595198, -50.48231506, -32.09587860, -72.55188751, 96.13369751, -12.25480938, 121.07116699, -0.25769371, 0.42593807, 0.60892004, 0.61756557, -0.00848117, -0.01045981, -0.00950567, 0.00000000, 0.00000000, 0.00000000, 0.00000000
2, 0.9800, 98, 0.74693048, -0.34280163, 0.27815279, -29.24752045, -9.76198673, 63.07531738, 72.43495941, 7.16164875, 90.96755219, -73.87887573, 70.00360870, -73.90542603, 0.73042911, 0.11778497, -0.66230708, 0.11810774, 0.19120097, 0.67573881, -0.37329307, 0.00000000, 0.00000000, 0.00000000, 0.00000000
1, 0.8700, 87, -0.19568232, -0.95848656, 0.11142056, 10.08113575, 14.43839169, 6.52009678, -50.51154709, -32.76819611, -72.63957977, 96.20475006, -12.33513737, 121.21091461, -0.25620008, 0.42573249, 0.60954493, 0.61771232, -0.01743377, -0.01286820, -0.00629567, 0.00000000, 0.00000000, 0.00000000, 0.00000000
1, 0.8800, 88, -0.18285030, -0.96206498, 0.10801390, 10.28063488, 9.78729057, 6.95782709, -50.51154709, -32.76819611, -72.63957977, 96.28788757, -12.41493988, 121.30276489, -0.25492221, 0.42580438, 0.61005890, 0.61768389, -0.03162845, -0.00884859, -0.00159282, 0.00000000, 0.00000000, 0.00000000, 0.00000000
1, 0.8900, 89, -0.18009418, -0.97230858, 0.12904263, 10.31740665, 1.92583454, 8.29707432, -50.07307816, -33.17743301, -72.40573120, 96.39659882, -12.49188519, 121.31752014, -0.25398120, 0.42632875, 0.61043411, 0.61733919, -0.03574631, 0.00187720, -0.02098958, 0.00000000, 0.00000000, 0.00000000, 0.00000000
1, 0.9000, 90, -0.19709460, -0.96721375, 0.11642064, 8.51182365, -3.58350158, 10.79492378, -50.33615875, -31.80356598, -72.90265656, 96.49233246, -12.59512138, 121.26861572, -0.25327373, 0.42728516, 0.61041117, 0.61699116, -0.02027854, -0.00268462, -0.00666836, 0.00000000, 0.00000000, 0.00000000, 0.00000000
2, 0.9900, 99, 0.73755574, -0.36944997, 0.28442279, -5.04377985, -7.72561359, 80.29722595, 72.52265167, 6.78164291, 90.58754730, -73.08181000, 70.75158691, -73.00563049, 0.73163188, 0.11354227, -0.66267705, 0.11261539, 0.20481582, 0.69006741, -0.37994307, 0.00000000, 0.00000000, 0.00000000, 0.00000000
1, 0.9100, 91, -0.20903990, -0.96412349, 0.09729674, 7.44936705, -5.46289349, 12.59673214, -50.77462769, -32.68050385, -71.90879822, 96.58222198, -12.71404362, 121.19829559, -0.25260854, 0.42841449, 0.61022121, 0.61666852, -0.01027745, -0.00516325, 0.01397994, 0.00000000, 0.00000000, 0.00000000, 0.00000000
2, 1.0000, 100, 0.75007021, -0.39391947, 0.30463651, 5.98961353, -3.79490995, 97.24512482, 73.37036133, 6.10932446, 90.79216766, -72.05959320, 71.66808319, -71.98910522, 0.73283941, 0.10756984, -0.66331589, 0.10671096, 0.19719934, 0.69942200, -0.40120381, 0.00000000, 0.00000000, 0.00000000, 0.00000000
2, 1.0100, 101, 0.77948487, -0.39173207, 0.32451388, 8.88638115, 1.72009480, 111.89408875, 74.51037598, 4.94007587, 91.14293671, -70.91484833, 72.73461151, -70.88010406, 0.73383009, 0.10050400, -0.66436166, 0.10008006, 0.17328680, 0.67943764, -0.42157441, 0.00000000, 0.00000000, 0.00000000, 0.00000000
1, 0.9200, 92, -0.21474761, -0.96454203, 0.08528280, 7.09082460, -5.64152098, 13.04664707, -50.89155197, -31.59894753, -72.43495941, 96.66925812, -12.83712769, 121.12540436, -0.25194150, 0.42956871, 0.60999012, 0.61636698, -0.00663912, -0.00410865, 0.02742573, 0.00000000, 0.00000000, 0.00000000, 0.00000000
1, 0.9300, 93, -0.22884488, -0.96410173, 0.07369721, 6.98315382, -4.89849758, 13.91729069, -50.89155197, -31.59894753, -72.43495941, 96.75395203, -12.96962261, 121.05880737, -0.25119165, 0.43072608, 0.60973567, 0.61611700, 0.00526599, -0.00388292, 0.04039788, 0.00000000, 0.00000000, 0.00000000, 0.00000000
1, 0.9400, 94, -0.22805078, -0.96735907, 0.07918398, 8.13463497, -3.60860848, 14.66156483, -50.86231995, -31.68664169, -72.63957977, 96.84132385, -13.11087608, 121.00591278, -0.25030425, 0.43185505, 0.60951495, 0.61590630, 0.00212784, 0.00008649, 0.03632275, 0.00000000, 0.00000000, 0.00000000, 0.00000000
2, 1.0200, 102, 0.82624227, -0.38811162, 0.33567777, 8.03349876, 8.24055576, 125.39894104, 74.97807312, 3.97544575, 91.40602112, -69.68097687, 73.94303131, -69.67598724, 0.73447394, 0.09264212, -0.66587859, 0.09258110, 0.13245688, 0.65558249, -0.43220061, 0.00000000, 0.00000000, 0.00000000, 0.00000000
2, 1.0300, 103, 0.89275199, -0.38335440, 0.34121487, 3.96310759, 15.73162651, 137.69326782, 74.97807312, 3.97544575, 91.40602112, -68.40796661, 75.30857086, -68.38107300, 0.73459280, 0.08422064, -0.66801387, 0.08389135, 0.07213898, 0.62829143, -0.43578196, 0.00000000, 0.00000000, 0.00000000, 0.00000000
1, 0.9500, 95, -0.21793452, -0.96534693, 0.09468919, 8.44139862, -4.44723606, 15.37708282, -51.44694519, -31.30663490, -73.10727692, 96.94040680, -13.25819588, 120.94161224, -0.24939588, 0.43309578, 0.60929132, 0.61562479, -0.01046565, -0.00116290, 0.02232094, 0.00000000, 0.00000000, 0.00000000, 0.00000000
1, 0.9600, 96, -0.20281000, -0.95271587, 0.11967659, 9.06265354, -8.57319736, 15.71093082, -51.33002090, -31.56971550, -72.05495453, 97.05573273, -13.40367794, 120.83451843, -0.24866475, 0.43458816, 0.60899693, 0.61515987, -0.02806571, -0.01299232, -0.00091963, 0.00000000, 0.00000000, 0.00000000, 0.00000000
1, 0.9700, 97, -0.19739896, -0.94539237, 0.14035076, 9.94438076, -13.05297279, 17.18271446, -51.33002090, -31.56971550, -72.05495453, 97.19133759, -13.55798435, 120.67941284, -0.24805836, 0.43641689, 0.60859466, 0.61450791, -0.03603476, -0.01944189, -0.01950924, 0.00000000, 0.00000000, 0.00000000, 0.00000000
2, 1.0400, 104, 0.95614898, -0.37091479, 0.34104854, -3.00460100, 24.13724518, 149.02238464, 75.41654205, 2.13387895, 91.25986481, -67.06441498, 76.77925110, -66.96566010, 0.73419160, 0.07554309, -0.67061955, 0.07433245, 0.01503437, 0.59113324, -0.43188748, 0.00000000, 0.00000000, 0.00000000, 0.00000000
2, 1.0500, 105, 1.01324403, -0.33405882, 0.32906008, -11.32278824, 32.40681839, 159.39918518, 77.43349457, -0.35077462, 91.72756195, -65.62119293, 78.36940002, -65.37188721, 0.73318106, 0.06672341, -0.67375118, 0.06366251, -0.03599069, 0.52794379, -0.41462362, 0.00000000, 0.00000000, 0.00000000, 0.00000000
2, 1.0600, 106, 1.07466853, -0.29031807, 0.30394840, -19.51918030, 40.50345230, 168.71157837, 77.11195374, -1.34463608, 92.28295898, -63.96666336, 80.06849670, -63.48899841, 0.73153925, 0.05782117, -0.67735410, 0.05194829, -0.09169280, 0.45615911, -0.38258451, 0.00000000, 0.00000000, 0.00000000, 0.00000000
2, 1.0700, 107, 1.14952886, -0.25323847, 0.24959776, -26.47111702, 47.55458450, 177.75601196, 77.93042755, -2.95235300, 93.13066101, -61.79555511, 81.86776733, -61.02278137, 0.72930515, 0.04878180, -0.68131667, 0.03926869, -0.16137853, 0.38939789, -0.31987214, 0.00000000, 0.00000000, 0.00000000, 0.00000000
2, 1.0800, 108, 1.21666443, -0.24042816, 0.17333528, -33.51363373, 54.17787170, 185.62623596, 77.93042755, -2.95235300, 93.13066101, -58.53517151, 83.75436401, -57.39553452, 0.72645468, 0.03967719, -0.68558902, 0.02563353, -0.22407413, 0.34530136, -0.23396948, 0.00000000, 0.00000000, 0.00000000, 0.00000000
1, 0.9800, 98, -0.18738361, -0.94603741, 0.13681744, 9.40677834, -18.13295746, 18.83227730, -51.50540543, -32.47588348, -72.05495453, 97.33484650, -13.72185993, 120.46982574, -0.24765258, 0.43859181, 0.60798770, 0.61372352, -0.04876634, -0.01784353, -0.01366905, 0.00000000, 0.00000000, 0.00000000, 0.00000000
1, 0.9900, 99, -0.20031236, -0.95605999, 0.13377097, 8.13228893, -21.19515991, 20.23736763, -51.50540543, -31.92049026, -71.52879333, 97.47482300, -13.89237785, 120.22872162, -0.24738424, 0.44095153, 0.60721010, 0.61291009, -0.03870532, -0.00681761, -0.00832660, 0.00000000, 0.00000000, 0.00000000, 0.00000000
1, 1.0000, 100, -0.22550145, -0.96149129, 0.12295382, 7.07418728, -22.53851318, 22.67320251, -52.03157043, -32.03741455, -71.99649048, 97.60864258, -14.08755493, 119.96778107, -0.24709266, 0.44350931, 0.60622698, 0.61215490, -0.01663527, -0.00031863, 0.00467920, 0.00000000, 0.00000000, 0.00000000, 0.00000000
1, 1.0100, 101, -0.23959978, -0.95882863, 0.10448786, 4.85990620, -22.92112541, 23.65247917, -52.26541901, -30.98509216, -71.82110596, 97.72265625, -14.29138851, 119.70092010, -0.24685268, 0.44608799, 0.60507435, 0.61151809, -0.00595108, -0.00185745, 0.02507216, 0.00000000, 0.00000000, 0.00000000, 0.00000000
2, 1.0900, 109, 1.27916276, -0.21625337, 0.08486126, -40.30251694, 57.65483475, 191.74468994, 78.33966827, -5.05700064, 94.56299591, -52.30779648, 85.66340637, -50.73768234, 0.72318029, 0.03062551, -0.68988812, 0.01126258, -0.28309107, 0.28853342, -0.13507780, 0.00000000, 0.00000000, 0.00000000, 0.00000000
1, 1.0200, 102, -0.28492102, -0.97819060, 0.07499321, 3.98492789, -22.65653419, 25.26094437, -52.26541901, -30.98509216, -71.82110596, 97.82891083, -14.51101875, 119.43386078, -0.24654484, 0.44871470, 0.60381275, 0.61096716, 0.03580804, 0.01865396, 0.05627289, 0.00000000, 0.00000000, 0.00000000, 0.00000000
1, 1.0300, 103, -0.28817600, -0.96681166, 0.06674392, 3.50990033, -21.30079651, 28.18796158, -52.29465103, -31.65740967, -71.00263214, 97.92919922, -14.76103973, 119.17584229, -0.24602580, 0.45140916, 0.60243487, 0.61055171, 0.03498355, 0.00855979, 0.06609182, 0.00000000, 0.00000000, 0.00000000, 0.00000000
1, 1.0400, 104, -0.28098583, -0.95795155, 0.05977478, 3.15594697, -17.57716370, 28.37790871, -53.23004913, -30.98509216, -71.23648071, 98.00768280, -15.01601887, 118.95950317, -0.24533747, 0.45385125, 0.60107684, 0.61035675, 0.02348137, 0.00104028, 0.07442877, 0.00000000, 0.00000000, 0.00000000, 0.00000000
1, 1.0500, 105, -0.30295733, -0.97295350, 0.06832309, 2.90000129, -14.39178467, 28.38772774, -53.69775009, -33.23589706, -71.23648071, 98.08601379, -15.27695656, 118.77070618, -0.24446450, 0.45616716, 0.59979647, 0.61023998, 0.04117195, 0.01735104, 0.06691956, 0.00000000, 0.00000000, 0.00000000, 0.00000000
1, 1.0600, 106, -0.30411723, -0.95249164, 0.07900848, 2.70418787, -14.26294518, 29.96837234, -52.93773651, -30.45892906, -71.11955261, 98.16366577, -15.55347157, 118.58030701, -0.24350652, 0.45855111, 0.59844071, 0.61016744, 0.03772656, -0.00167123, 0.05740024, 0.00000000, 0.00000000, 0.00000000, 0.00000000
2, 1.1000, 110, 1.35087025, -0.16370989, -0.02994113, -46.97953033, 58.67587280, 196.97418213, 78.83659363, -7.62934828, 94.91376495, -35.94141006, 87.47557831, -33.87378311, 0.71959442, 0.02166889, -0.69404584, -0.00384093, -0.35245356, 0.20237938, -0.00966738, 0.00000000, 0.00000000, 0.00000000, 0.00000000
2, 1.1100, 111, 1.41291785, -0.14123298, -0.13089839, -54.80847931, 58.39621735, 201.13114929, 79.04121399, -9.73399544, 95.67378235, 19.39127731, 88.45721436, 22.03515053, 0.71575963, 0.01294426, -0.69794941, -0.01967888, -0.41340521, 0.14539555, 0.10168679, 0.00000000, 0.00000000, 0.00000000, 0.00000000
2, 1.1200, 112, 1.44890535, -0.10550624, -0.21844822, -64.20014191, 57.16883087, 203.62545776, 78.39812469, -12.01403046, 96.28763580, 70.42362213, 87.30945587, 73.73790741, 0.71172404, 0.00464743, -0.70150858, -0.03623877, -0.44962406, 0.07453068, 0.19915165, 0.00000000, 0.00000000, 0.00000000, 0.00000000
1, 1.0700, 107, -0.32105890, -0.94409686, 0.07597811, 1.56539440, -11.72657681, 30.02777863, -52.93773651, -30.45892906, -71.11955261, 98.22393799, -15.83396721, 118.41529083, -0.24245650, 0.46077508, 0.59707081, 0.61025220, 0.04997371, -0.00861035, 0.06135253, 0.00000000, 0.00000000, 0.00000000, 0.00000000
1, 1.0800, 108, -0.32358816, -0.95466059, 0.07928902, 1.66378963, -6.43442345, 27.48057556, -53.69775009, -32.09587860, -71.00263214, 98.27005005, -16.09670067, 118.30806732, -0.24126063, 0.46258324, 0.59591639, 0.61048645, 0.04800481, 0.00333877, 0.05869247, 0.00000000, 0.00000000, 0.00000000, 0.00000000
2, 1.1300, 113, 1.47155035, -0.03475560, -0.30674416, -71.07462311, 54.81571960, 204.10002136, 78.39812469, -12.01403046, 96.28763580, 84.97708893, 85.41561890, 89.02934265, 0.70757782, -0.00326281, -0.70462072, -0.05322225, -0.47385874, -0.03160819, 0.29658055, 0.00000000, 0.00000000, 0.00000000, 0.00000000
2, 1.1400, 114, 1.50281525, 0.04813309, -0.38233191, -70.83446503, 49.91091537, 201.85189819, 78.36889648, -15.08330917, 97.69073486, 90.23527527, 83.41703033, 95.02330780, 0.70346171, -0.01106871, -0.70718658, -0.07004458, -0.50803810, -0.14968461, 0.38010040, 0.00000000, 0.00000000, 0.00000000, 0.00000000
2, 1.1500, 115, 1.52311718, 0.07242489, -0.34418169, -74.44998169, 47.62737656, 200.48625183, 78.22274017, -18.15258598, 97.89534760, 92.67953491, 81.39987946, 98.23980713, 0.69924194, -0.01857795, -0.70933086, -0.08697899, -0.53251833, -0.20878367, 0.34878710, 0.00000000, 0.00000000, 0.00000000, 0.00000000
1, 1.0900, 109, -0.32330993, -0.95130306, 0.09159836, 2.40638232, -5.95341301, 29.19145966, -53.63928604, -31.27740479, -70.62262726, 98.31675720, -16.38320923, 118.20008087, -0.23992169, 0.46449488, 0.59466839, 0.61077958, 0.04308499, 0.00143059, 0.04701698, 0.00000000, 0.00000000, 0.00000000, 0.00000000
2, 1.1600, 116, 1.51872873, 0.18378744, -0.28480408, -81.26342010, 46.64151001, 198.96031189, 77.81350708, -20.31569672, 97.39842224, 93.93841553, 79.38630676, 100.34052277, 0.69484913, -0.02557760, -0.71110559, -0.10420852, -0.53355014, -0.35470694, 0.29540259, 0.00000000, 0.00000000, 0.00000000, 0.00000000
2, 1.1700, 117, 1.54538023, 0.36171409, -0.23902035, -79.26521301, 44.39544678, 194.01089478, 76.49810028, -21.66033363, 98.18766022, 94.60040283, 77.41843414, 101.82527924, 0.69038433, -0.03240201, -0.71252072, -0.12097096, -0.56672615, -0.56640160, 0.25473866, 0.00000000, 0.00000000, 0.00000000, 0.00000000
2, 1.1800, 118, 1.57172048, 0.46490976, -0.26157409, -63.31863785, 39.76096725, 187.83541870, 76.49810028, -21.66033363, 98.18766022, 94.95861053, 75.51936340, 102.84079742, 0.68602282, -0.03983220, -0.71359664, -0.13625728, -0.60053313, -0.70219702, 0.28169340, 0.00000000, 0.00000000, 0.00000000, 0.00000000
2, 1.1900, 119, 1.56396580, 0.61281341, -0.30496624, -41.59078979, 32.44213104, 177.75866699, 76.03040314, -24.49576187, 98.97690582, 95.15003967, 73.72013855, 103.47052765, 0.68194091, -0.04802029, -0.71433592, -0.14958240, -0.60091364, -0.88092709, 0.32883596, 0.00000000, 0.00000000, 0.00000000, 0.00000000
2, 1.2000, 120, 1.48567462, 0.79428238, -0.23572974, -21.96490860, 28.16837692, 161.70112610, 76.20578766, -26.65887070, 98.53843689, 95.36157990, 72.08414459, 103.92169189, 0.67809361, -0.05641903, -0.71497476, -0.16067682, -0.53102928, -1.09066415, 0.26308107, 0.00000000, 0.00000000, 0.00000000, 0.00000000
2, 1.2100, 121, 1.33548486, 0.98891872, -0.00571364, -20.11924362, 33.54381180, 142.50660706, 75.44577789, -29.08506203, 98.80152130, 95.74044037, 70.63330078, 104.53411102, 0.67404699, -0.06364364, -0.71591461, -0.17051803, -0.38907167, -1.31026530, 0.03716792, 0.00000000, 0.00000000, 0.00000000, 0.00000000
2, 1.2200, 122, 1.23075974, 1.32641542, -0.07647099, -21.66408157, 34.10360718, 116.98035431, 74.21806335, -28.52966881, 99.41537476, 96.12482452, 69.43452454, 105.17356873, 0.67025650, -0.06916592, -0.71690714, -0.17893185, -0.29193506, -1.66888595, 0.11239080, 0.00000000, 0.00000000, 0.00000000, 0.00000000
1, 1.1000, 110, -0.33137381, -0.94798958, 0.09738949, 2.08122158, -3.58137536, 28.29402351, -54.75007248, -31.04355431, -71.20724487, 98.36022186, -16.65797615, 118.12032318, -0.23851433, 0.46619615, 0.59355545, 0.61111701, 0.04643592, -0.00040732, 0.04172159, 0.00000000, 0.00000000, 0.00000000, 0.00000000
1, 1.1100, 111, -0.33866546, -0.94263279, 0.09992962, 2.45457745, -1.43183374, 27.33009529, -54.75007248, -31.04355431, -71.20724487, 98.40104675, -16.92627525, 118.06393433, -0.23703045, 0.46773782, 0.59254295, 0.61149889, 0.04919477, -0.00431937, 0.03966460, 0.00000000, 0.00000000, 0.00000000, 0.00000000
1, 1.1200, 112, -0.32853696, -0.93167984, 0.09887022, 2.26592231, 2.20098734, 25.38153267, -54.48699188, -31.56971550, -71.20724487, 98.42838287, -17.18058586, 118.04786682, -0.23546918, 0.46897840, 0.59167171, 0.61199528, 0.03469331, -0.01386829, 0.04110520, 0.00000000, 0.00000000, 0.00000000, 0.00000000
1, 1.1300, 113, -0.37035078, -0.95193255, 0.09399159, 2.77217364, 5.04747009, 24.46269989, -54.66238022, -30.31277466, -70.91493988, 98.45173645, -17.42996979, 118.06256866, -0.23378798, 0.47002769, 0.59092093, 0.61255991, 0.07239488, 0.00769503, 0.04613787, 0.00000000, 0.00000000, 0.00000000, 0.00000000
2, 1.2300, 123, 1.22904944, 1.52288353, -0.26042452, -3.37093186, 23.24400902, 79.64868927, 74.21806335, -28.88044357, 100.00000000, 96.46457672, 68.62666321, 105.56655884, 0.66759729, -0.07357557, -0.71770662, -0.18384184, -0.29612750, -1.88073945, 0.30019471, 0.00000000, 0.00000000, 0.00000000, 0.00000000
2, 1.2400, 124, 1.23574114, 1.37684798, -0.37575105, 2.93273544, 13.42995930, 44.66963577, 74.21806335, -28.88044357, 100.00000000, 96.70141602, 68.16751099, 105.78975677, 0.66601527, -0.07632805, -0.71824306, -0.18634535, -0.30652520, -1.74391198, 0.41838607, 0.00000000, 0.00000000, 0.00000000, 0.00000000
1, 1.1400, 114, -0.33456498, -0.95109206, 0.11034825, 3.45601535, 7.12221384, 24.61280823, -55.07161713, -30.54662323, -70.68108368, 98.47034454, -17.68802834, 118.09703064, -0.23196645, 0.47100031, 0.59019101, 0.61320865, 0.03236001, 0.00823546, 0.02998011, 0.00000000, 0.00000000, 0.00000000, 0.00000000
2, 1.2500, 125, 1.21561551, 1.23889625, -0.43969387, -6.57260323, 6.23422480, 11.95226669, 74.33499146, -29.49429893, 99.88307190, 96.75476837, 68.04146576, 105.91809845, 0.66547364, -0.07659388, -0.71841800, -0.18749358, -0.28805196, -1.60996902, 0.48363623, 0.00000000, 0.00000000, 0.00000000, 0.00000000
2, 1.2600, 126, 1.18204212, 1.15214276, -0.42725971, -18.35878181, -1.40678000, -24.91678047, 73.60420990, -29.17275620, 99.56153107, 96.60853577, 68.29059601, 105.95837402, 0.66609007, -0.07398841, -0.71819961, -0.18718757, -0.25370711, -1.52136683, 0.47045594, 0.00000000, 0.00000000, 0.00000000, 0.00000000
2, 1.2700, 127, 1.14786708, 0.98608863, -0.36356610, -26.14118767, -4.98939419, -46.26192474, 72.84420013, -29.17275620, 99.61999512, 96.35385895, 68.75588989, 105.96559143, 0.66732001, -0.06965016, -0.71777350, -0.18610264, -0.21702041, -1.34917235, 0.40466380, 0.00000000, 0.00000000, 0.00000000, 0.00000000
2, 1.2800, 128, 1.08747816, 0.79069489, -0.32144976, -36.88972473, -7.12320328, -60.75974274, 73.45805359, -28.23735809, 99.26921844, 95.95304108, 69.39601898, 105.91249084, 0.66909814, -0.06377189, -0.71706474, -0.18455108, -0.15305772, -1.14481914, 0.35943916, 0.00000000, 0.00000000, 0.00000000, 0.00000000
2, 1.2900, 129, 1.04071748, 0.66128719, -0.28663048, -50.04053497, -9.23853016, -71.45871735, 73.45805359, -28.23735809, 99.26921844, 95.39516449, 70.11622620, 105.85123444, 0.67108542, -0.05652526, -0.71609658, -0.18345313, -0.10199592, -1.00428689, 0.32038549, 0.00000000, 0.00000000, 0.00000000, 0.00000000
2, 1.3000, 130, 1.02288353, 0.57863742, -0.24511869, -64.03684998, -10.59173298, -79.08617401, 73.48728180, -28.14966393, 99.23999023, 94.65258789, 70.91331482, 105.74283600, 0.67330194, -0.04800007, -0.71481323, -0.18276376, -0.07961355, -0.90940166, 0.27375454, 0.00000000, 0.00000000, 0.00000000, 0.00000000
2, 1.3100, 131, 1.00650358, 0.50558305, -0.19798312, -79.45127106, -10.58201885, -84.71744537, 73.45805359, -27.82811928, 99.12306213, 93.72928619, 71.76598358, 105.60690308, 0.67561030, -0.03821335, -0.71324295, -0.18268818, -0.05850793, -0.82302380, 0.22070071, 0.00000000, 0.00000000, 0.00000000, 0.00000000
1, 1.1500, 115, -0.32225198, -0.95118123, 0.12032020, 3.43517375, 7.62929249, 24.24896431, -55.24700165, -30.54662323, -70.71031952, 98.49193573, -17.93912315, 118.13872528, -0.23013408, 0.47190934, 0.58953106, 0.61383468, 0.01581284, 0.00970924, 0.02012204, 0.00000000, 0.00000000, 0.00000000, 0.00000000
1, 1.1600, 116, -0.32527143, -0.94621444, 0.12289128, 3.04149127, 7.31037283, 24.83329391, -55.24700165, -30.54662323, -70.71031952, 98.51074219, -18.19553566, 118.17615509, -0.22830187, 0.47285515, 0.58881658, 0.61447638, 0.01461174, 0.00614445, 0.01766973, 0.00000000, 0.00000000, 0.00000000, 0.00000000
2, 1.3200, 132, 0.97569400, 0.49099821, -0.15015006, -92.22067261, -11.14494705, -90.40818024, 74.27652740, -27.12657166, 100.08769226, 92.61626434, 72.67483521, 105.40653992, 0.67800927, -0.02732435, -0.71137190, -0.18304895, -0.02288650, -0.79410589, 0.16630726, 0.00000000, 0.00000000, 0.00000000, 0.00000000
2, 1.3300, 133, 0.90056914, 0.36493844, 0.12131166, -95.07657623, -11.41441250, -97.01786804, 73.80883026, -27.00964546, 99.09383392, 91.44233704, 73.65991974, 105.16455078, 0.68040568, -0.01581913, -0.70942968, -0.18305026, 0.05715395, -0.65243089, -0.11191730, 0.00000000, 0.00000000, 0.00000000, 0.00000000
2, 1.3400, 134, 1.11049592, -0.67821628, 0.88641024, -68.23075867, -5.38079596, -88.44720459, 73.80883026, -27.00964546, 99.09383392, 90.62570953, 74.54531097, 105.02469635, 0.68221647, -0.00637863, -0.70810610, -0.18200478, -0.14813638, 0.40650100, -0.88237369, 0.00000000, 0.00000000, 0.00000000, 0.00000000
2, 1.3500, 135, 1.46900105, -2.79579449, 0.59356004, 5.70510769, 2.22639775, -50.00849533, 74.71499634, -27.79888916, 98.53843689, 90.78614044, 75.04511261, 105.13189697, 0.68286538, -0.00359255, -0.70834833, -0.17867474, -0.50366652, 2.53481007, -0.59025860, 0.00000000, 0.00000000, 0.00000000, 0.00000000
1, 1.1700, 117, -0.31807008, -0.94345206, 0.11972965, 2.20917249, 8.26391697, 24.84321594, -55.48085403, -30.80970383, -71.23648071, 98.51794434, -18.45346642, 118.22349548, -0.22645336, 0.47373137, 0.58807302, 0.61519730, 0.00313465, 0.00480566, 0.02083039, 0.00000000, 0.00000000, 0.00000000, 0.00000000
1, 1.1800, 118, -0.33837086, -0.95633364, 0.12936392, 0.99243802, 9.08652210, 26.03971672, -55.68547058, -30.80970383, -70.85647583, 98.51061249, -18.72444725, 118.27764893, -0.22454731, 0.47459799, 0.58722764, 0.61603481, 0.01906412, 0.01912554, 0.01093067, 0.00000000, 0.00000000, 0.00000000, 0.00000000
1, 1.1900, 119, -0.32147396, -0.95373911, 0.13366480, -0.35679600, 9.72827435, 28.24409485, -56.03624725, -30.19584846, -71.11955261, 98.48674011, -19.01769447, 118.33626556, -0.22254860, 0.47550318, 0.58622444, 0.61701685, -0.00254020, 0.01807730, 0.00615562, 0.00000000, 0.00000000, 0.00000000, 0.00000000
2, 1.3600, 136, 1.00767112, -1.50738466, -0.47132787, 11.35537052, -19.87813187, -72.50662994, 73.77959442, -26.33732796, 98.36305237, 90.16077423, 75.77194214, 104.36843109, 0.68520355, -0.00009524, -0.70735055, -0.17364150, -0.03964800, 1.25656307, 0.47342700, 0.00000000, 0.00000000, 0.00000000, 0.00000000
2, 1.3700, 137, 1.19421399, 0.46202195, -0.30039763, -39.70237350, -4.74012661, -80.72789001, 73.37036133, -25.08038521, 99.12306213, 89.56544495, 76.57930756, 104.16388702, 0.68669605, 0.00718996, -0.70644754, -0.17125657, -0.22271408, -0.69902718, 0.29925337, 0.00000000, 0.00000000, 0.00000000, 0.00000000
1, 1.2000, 120, -0.31755131, -0.95180100, 0.11967577, -2.72621608, 12.17684460, 30.30227661, -56.29932785, -30.57585526, -70.94416809, 98.43307495, -19.33534241, 118.41657257, -0.22040631, 0.47634283, 0.58505416, 0.61824763, -0.01156613, 0.01777759, 0.01917513, 0.00000000, 0.00000000, 0.00000000, 0.00000000
1, 1.2100, 121, -0.31638548, -0.96432704, 0.13213843, -3.94788337, 15.44985008, 32.31620026, -56.29932785, -30.57585526, -70.94416809, 98.35617065, -19.67759132, 118.52868652, -0.21803698, 0.47708091, 0.58379221, 0.61970991, -0.01816593, 0.03202570, 0.00528961, 0.00000000, 0.00000000, 0.00000000, 0.00000000
1, 1.2200, 122, -0.30354166, -0.98555636, 0.16500926, -4.74621105, 14.66110229, 38.30564499, -57.08856964, -29.49429893, -71.55802155, 98.27630615, -20.07782173, 118.62402344, -0.21541469, 0.47814620, 0.58221602, 0.62128687, -0.03720053, 0.05526626, -0.02917513, 0.00000000, 0.00000000, 0.00000000, 0.00000000
1, 1.2300, 123, -0.29980633, -0.95008761, 0.20028435, -7.39248371, 15.91971207, 41.10404587, -57.08856964, -30.13738632, -71.03186035, 98.16584015, -20.50740242, 118.72933960, -0.21268418, 0.47922885, 0.58039480, 0.62309468, -0.04786672, 0.02208421, -0.06638706, 0.00000000, 0.00000000, 0.00000000, 0.00000000
1, 1.2400, 124, -0.35245571, -0.96039438, 0.22101571, -9.51572037, 17.31444931, 44.86622238, -57.35165024, -29.46506882, -70.65185547, 98.03736877, -20.97567177, 118.84214783, -0.20974930, 0.48040622, 0.57834798, 0.62508309, -0.00256069, 0.03482237, -0.08958448, 0.00000000, 0.00000000, 0.00000000, 0.00000000
2, 1.3800, 138, 1.26309693, 0.67226350, -0.17873831, -43.92241287, 13.63236237, -71.42828369, 74.42268372, -24.26191139, 98.91844177, 89.68580627, 77.31283569, 104.72617340, 0.68693244, 0.01446484, -0.70653278, -0.16948783, -0.28863758, -0.89679277, 0.17722823, 0.00000000, 0.00000000, 0.00000000, 0.00000000
2, 1.3900, 139, 1.28092599, 0.95109534, 0.17986245, -37.28250504, 9.20990562, -87.61430359, 74.42268372, -24.26191139, 98.91844177, 89.71440125, 78.18943024, 105.13711548, 0.68759137, 0.02223767, -0.70639604, -0.16651821, -0.30335367, -1.16164684, -0.18085800, 0.00000000, 0.00000000, 0.00000000, 0.00000000
2, 1.4000, 140, 1.41659534, 0.42281061, 0.36505005, -12.32028389, 7.17057705, -95.95307922, 74.04267883, -23.82344246, 98.24612427, 89.93272400, 79.14921570, 105.48532104, 0.68849725, 0.02899448, -0.70643383, -0.16149971, -0.43567169, -0.61714649, -0.36572087, 0.00000000, 0.00000000, 0.00000000, 0.00000000
2, 1.4100, 141, 1.13358605, -0.54558617, 0.06975439, 3.09519744, 8.90771675, -87.90930176, 74.27652740, -22.91727448, 98.71382904, 90.46527100, 80.02796936, 105.99535370, 0.68917412, 0.03435274, -0.70676935, -0.15599993, -0.14970514, 0.36681429, -0.06891793, 0.00000000, 0.00000000, 0.00000000, 0.00000000
2, 1.4200, 142, 0.87917864, -0.26901096, -0.03379083, -13.97637177, 6.04151201, -86.67784119, 73.89652252, -21.95264435, 99.03536987, 90.74092102, 80.89407349, 106.41658020, 0.68991756, 0.04062082, -0.70666343, -0.15162644, 0.10730550, 0.10521905, 0.03565906, 0.00000000, 0.00000000, 0.00000000, 0.00000000
1, 1.2500, 125, -0.36058110, -0.96312392, 0.22298595, -9.83804131, 18.14664841, 51.00614929, -57.35165024, -29.46506882, -70.65185547, 97.89660645, -21.50595093, 118.95910645, -0.20646119, 0.48180494, 0.57599849, 0.62726671, -0.00271975, 0.04041113, -0.09412026, 0.00000000, 0.00000000, 0.00000000, 0.00000000
1, 1.2600, 126, -0.31112450, -0.94841033, 0.23447658, -10.05503273, 20.90912056, 54.77595139, -58.25782013, -29.43583679, -71.49955750, 97.74302673, -22.07705879, 119.10194397, -0.20283191, 0.48322603, 0.57351398, 0.62962979, -0.06122043, 0.02891179, -0.10848767, 0.00000000, 0.00000000, 0.00000000, 0.00000000
2, 1.4300, 143, 0.90215743, 0.18836260, 0.00547294, -29.81646538, 6.57000875, -78.83708191, 74.86115265, -22.44957542, 99.03536987, 90.94966888, 81.70166779, 106.91667175, 0.69047379, 0.04740994, -0.70636278, -0.14849238, 0.08658220, -0.33794031, -0.00320924, 0.00000000, 0.00000000, 0.00000000, 0.00000000
2, 1.4400, 144, 0.98752159, 0.14816283, 0.00266105, -22.86742210, 3.50694370, -71.46350861, 74.86115265, -22.44957542, 99.03536987, 91.06157684, 82.41555786, 107.26057434, 0.69107473, 0.05323735, -0.70596629, -0.14557847, 0.00310665, -0.28468329, -0.00021889, 0.00000000, 0.00000000, 0.00000000, 0.00000000
1, 1.2700, 127, -0.34743765, -0.98722148, 0.23797427, -11.73736954, 21.08541870, 58.81742096, -57.73165512, -29.87430573, -72.58111572, 97.57190704, -22.68809128, 119.24319458, -0.19903642, 0.48479608, 0.57075340, 0.63213760, -0.03452024, 0.07124009, -0.11518772, 0.00000000, 0.00000000, 0.00000000, 0.00000000
1, 1.2800, 128, -0.34803337, -1.01381445, 0.24223103, -12.21364307, 22.00160408, 62.44348145, -58.75474930, -28.20812607, -71.96726227, 97.39163208, -23.33584976, 119.39184570, -0.19500937, 0.48647195, 0.56781012, 0.63475043, -0.04415291, 0.10172424, -0.12277131, 0.00000000, 0.00000000, 0.00000000, 0.00000000
1, 1.2900, 129, -0.36904004, -1.04785776, 0.24964516, -10.98309517, 26.02693558, 65.90503693, -59.07629395, -28.44197655, -72.02572632, 97.21110535, -24.01782417, 119.58351135, -0.19052970, 0.48808312, 0.56489229, 0.63747162, -0.03392098, 0.14002460, -0.13367340, 0.00000000, 0.00000000, 0.00000000, 0.00000000
1, 1.3000, 130, -0.41988623, -1.18302405, 0.34182978, -12.73544025, 30.46486092, 67.77802277, -59.07629395, -28.44197655, -72.02572632, 96.98471069, -24.72804832, 119.82347107, -0.18579583, 0.48950711, 0.56179130, 0.64051020, 0.00585102, 0.27969271, -0.22978525, 0.00000000, 0.00000000, 0.00000000, 0.00000000
1, 1.3100, 131, -0.40014979, -1.17789936, 0.40823248, -8.72695541, 42.99345779, 72.65256500, -60.42092896, -27.62350082, -72.72727203, 96.73796082, -25.50070572, 120.19908905, -0.17999507, 0.49051034, 0.55888158, 0.64393532, -0.02573667, 0.27955180, -0.30063701, 0.00000000, 0.00000000, 0.00000000, 0.00000000
1, 1.3200, 132, -0.44995549, -1.20385659, 0.23518641, -5.84296942, 46.24578094, 75.72106171, -60.56708527, -26.86348915, -72.90265656, 96.49880981, -26.30616760, 120.61275482, -0.17372932, 0.49149805, 0.55602163, 0.64736986, 0.01156515, 0.31101847, -0.13204904, 0.00000000, 0.00000000, 0.00000000, 0.00000000
1, 1.3300, 133, -0.56322956, -1.29134917, 0.00089173, -4.23739290, 48.31840897, 79.88701630, -61.09324646, -26.54194641, -73.28266144, 96.25930023, -27.15375519, 121.05107117, -0.16704758, 0.49256366, 0.55307025, 0.65083760, 0.11186101, 0.40449011, 0.09774350, 0.00000000, 0.00000000, 0.00000000, 0.00000000
1, 1.3400, 134, -0.48923388, -1.27189493, -0.12201941, -1.39814901, 49.25891495, 85.11722565, -61.82402802, -26.54194641, -73.25343323, 96.02985382, -28.04871368, 121.50765991, -0.15990660, 0.49377602, 0.55003577, 0.65427500, 0.02423937, 0.39163429, 0.21636453, 0.00000000, 0.00000000, 0.00000000, 0.00000000
2, 1.4500, 145, 0.97633499, 0.07362862, 0.03351655, -15.14579201, 2.91099381, -64.11794281, 74.33499146, -20.72493362, 98.27536011, 91.23925018, 83.05609894, 107.59235382, 0.69162834, 0.05813687, -0.70563978, -0.14262877, 0.01582429, -0.19854516, -0.03099089, 0.00000000, 0.00000000, 0.00000000, 0.00000000
2, 1.4600, 146, 0.98427802, 0.05834822, 0.00343200, -7.88680458, 2.79562688, -56.71632385, 74.15959930, -19.96492195, 98.65536499, 91.51583099, 83.62240601, 107.95021057, 0.69211388, 0.06213942, -0.70541328, -0.13967535, 0.00911984, -0.17300215, -0.00061759, 0.00000000, 0.00000000, 0.00000000, 0.00000000
1, 1.3500, 135, -0.47093335, -1.31912374, -0.19265525, -2.17981935, 43.07131958, 91.21775055, -61.82402802, -26.54194641, -73.25343323, 95.82660675, -29.00051498, 121.88797760, -0.15271816, 0.49564627, 0.54656136, 0.65748209, -0.00835662, 0.44613159, 0.28289405, 0.00000000, 0.00000000, 0.00000000, 0.00000000
2, 1.4700, 147, 1.03209019, 0.03417668, -0.00927834, -0.58449936, 3.07010651, -52.44467545, 73.75036621, -20.11107826, 99.26921844, 91.94390869, 84.14565277, 108.38657379, 0.69255388, 0.06543983, -0.70529968, -0.13652559, -0.03765853, -0.13947847, 0.01251625, 0.00000000, 0.00000000, 0.00000000, 0.00000000
2, 1.4800, 148, 1.03325784, 0.01163027, -0.02241898, 4.15760708, 3.51645017, -49.98303223, 73.66267395, -20.02338409, 98.88921356, 92.50551605, 84.65198517, 108.90367889, 0.69298947, 0.06831770, -0.70524466, -0.13314807, -0.03793135, -0.10808856, 0.02627479, 0.00000000, 0.00000000, 0.00000000, 0.00000000
1, 1.3600, 136, -0.48800069, -1.35023105, -0.23204595, -3.62330580, 33.67076111, 98.24069977, -61.99941635, -25.86962891, -73.37036133, 95.65653229, -30.01168060, 122.15999603, -0.14562544, 0.49833152, 0.54253137, 0.66039288, -0.00635199, 0.48530826, 0.31864092, 0.00000000, 0.00000000, 0.00000000, 0.00000000
1, 1.3700, 137, -0.48341647, -1.38016880, -0.24994434, -2.82210612, 26.59421158, 105.79772949, -63.51943970, -25.72347260, -73.72113037, 95.53314209, -31.09054756, 122.34757996, -0.13838451, 0.50174946, 0.53808236, 0.66299665, -0.02679315, 0.52420157, 0.33347532, 0.00000000, 0.00000000, 0.00000000, 0.00000000
1, 1.3800, 138, -0.45781079, -1.43730688, -0.21896853, -2.46893001, 19.25059509, 113.95909882, -63.08097076, -25.54808426, -74.15959930, 95.45766449, -32.24333954, 122.44450378, -0.13098799, 0.50593150, 0.53315544, 0.66529751, -0.06922744, 0.59137344, 0.30017841, 0.00000000, 0.00000000, 0.00000000, 0.00000000
1, 1.3900, 139, -0.45762947, -1.50973380, -0.14369081, -1.69177961, 13.96730995, 121.55475616, -63.08097076, -25.54808426, -74.15959930, 95.42189026, -33.46121979, 122.47920227, -0.12336049, 0.51067269, 0.52785152, 0.66735935, -0.08700621, 0.67484826, 0.22307891, 0.00000000, 0.00000000, 0.00000000, 0.00000000
1, 1.4000, 140, -0.41555378, -1.58226514, -0.05606185, 0.46467486, 7.27365351, 130.27221680, -65.09792328, -24.40806770, -74.04267883, 95.46122742, -34.76496124, 122.41751099, -0.11540954, 0.51622146, 0.52211791, 0.66902095, -0.14752641, 0.75961190, 0.13442558, 0.00000000, 0.00000000, 0.00000000, 0.00000000
1, 1.4100, 141, -0.36212608, -1.65791893, 0.00344781, 0.40050974, 4.39526033, 136.87046814, -65.36100769, -23.70651817, -73.31189728, 95.52748871, -36.13157272, 122.31034088, -0.10719195, 0.52216822, 0.51598310, 0.67053086, -0.22020519, 0.84873760, 0.07446658, 0.00000000, 0.00000000, 0.00000000, 0.00000000
1, 1.4200, 142, -0.31111374, -1.73128426, 0.06568661, -1.04038858, -4.48402882, 141.18649292, -67.26103210, -22.53726959, -73.86728668, 95.65380096, -37.53235245, 122.08264923, -0.09917118, 0.52873904, 0.50940889, 0.67164183, -0.29075801, 0.93653417, 0.01225952, 0.00000000, 0.00000000, 0.00000000, 0.00000000
2, 1.4900, 149, 1.02577257, -0.06215779, -0.03726605, 2.10187507, 5.58343840, -46.79631424, 74.45191193, -19.29260445, 98.80152130, 93.41990662, 85.11640167, 109.80059814, 0.69319600, 0.07113484, -0.70532191, -0.13015422, -0.02966358, -0.02581776, 0.04194745, 0.00000000, 0.00000000, 0.00000000, 0.00000000
2, 1.5000, 150, 1.07174885, 0.03277294, -0.03479695, -0.37659130, 7.28151512, -42.93851471, 74.45191193, -19.29260445, 98.80152130, 94.67584229, 85.53961945, 111.06447601, 0.69322819, 0.07388263, -0.70548648, -0.12753375, -0.07499436, -0.11303467, 0.04064195, 0.00000000, 0.00000000, 0.00000000, 0.00000000
2, 1.5100, 151, 1.07133710, 0.12946527, -0.03800388, 6.24865770, 8.66885185, -38.42881012, 73.60420990, -18.35720444, 99.32768250, 96.38837433, 85.91378784, 112.71910095, 0.69315857, 0.07596645, -0.70582819, -0.12476752, -0.07405245, -0.20272022, 0.04531101, 0.00000000, 0.00000000, 0.00000000, 0.00000000
1, 1.4300, 143, -0.23746260, -1.79195976, 0.07855789, -4.41346025, -6.49829531, 146.12951660, -68.28412628, -21.57263947, -74.39344788, 95.77523041, -38.97990036, 121.81500244, -0.09109185, 0.53553438, 0.50230914, 0.67274868, -0.38409999, 1.01254714, -0.00029497, 0.00000000, 0.00000000, 0.00000000, 0.00000000
1, 1.4400, 144, -0.15889810, -1.82168043, 0.08382518, -3.72025847, 9.19284534, 152.27615356, -68.28412628, -21.57263947, -74.39344788, 95.78818512, -40.49735260, 121.74052429, -0.08192848, 0.54153985, 0.49505541, 0.67449433, -0.48283243, 1.05871046, -0.00634736, 0.00000000, 0.00000000, 0.00000000, 0.00000000
1, 1.4500, 145, -0.07020515, -1.84896612, 0.07039639, -4.05297852, 26.52936172, 159.05702209, -69.54106903, -20.08184814, -74.01344299, 95.65480804, -42.10643005, 121.88079071, -0.07160529, 0.54676694, 0.48743948, 0.67699432, -0.59235185, 1.10371959, 0.00419089, 0.00000000, 0.00000000, 0.00000000, 0.00000000
1, 1.4600, 146, 0.05152657, -1.79918230, 0.01945378, -4.35084009, 37.03881836, 166.01278687, -70.38877106, -19.32183456, -74.27652740, 95.41712952, -43.79454803, 122.16561127, -0.06042260, 0.55155289, 0.47943881, 0.67990959, -0.73549783, 1.07309449, 0.05062036, 0.00000000, 0.00000000, 0.00000000, 0.00000000
1, 1.4700, 147, 0.18302466, -1.65560806, -0.03128093, -3.33873439, 43.42590714, 170.37709045, -71.00263214, -18.29874229, -74.91961670, 95.11046600, -45.53094101, 122.55401611, -0.04865149, 0.55602080, 0.47121197, 0.68295920, -0.88859904, 0.94997489, 0.09588294, 0.00000000, 0.00000000, 0.00000000, 0.00000000
2, 1.5200, 152, 1.03068817, 0.08679107, -0.02434438, 14.88842201, 10.08210564, -30.33297348, 73.83805847, -18.44489861, 99.47383881, 98.55989838, 86.20148468, 114.74653625, 0.69296348, 0.07704349, -0.70639551, -0.12194811, -0.03300369, -0.15417384, 0.03344272, 0.00000000, 0.00000000, 0.00000000, 0.00000000
2, 1.5300, 153, 1.00813627, 0.00343359, -0.01012952, 17.29770088, 11.63331318, -23.35916901, 73.98421478, -18.56182289, 98.77228546, 101.10153961, 86.41698456, 117.11676025, 0.69263303, 0.07756693, -0.70710683, -0.11934320, -0.01017846, -0.06630166, 0.02135882, 0.00000000, 0.00000000, 0.00000000, 0.00000000
1, 1.4800, 148, 0.20040089, -1.39119232, -0.08218858, -1.22570133, 44.21895599, 164.76333618, -72.96112061, -17.04179955, -75.38731384, 94.78526306, -47.21058273, 122.98646545, -0.03706758, 0.56009400, 0.46328065, 0.68577826, -0.92683494, 0.70652318, 0.14096752, 0.00000000, 0.00000000, 0.00000000, 0.00000000
2, 1.5400, 154, 0.97450370, -0.04471339, -0.02450377, 16.93346786, 11.74154663, -20.22414017, 74.13037109, -18.44489861, 98.77228546, 103.86237335, 86.58909607, 119.71309662, 0.69223160, 0.07791339, -0.70785379, -0.11699602, 0.02365908, -0.01435754, 0.03793094, 0.00000000, 0.00000000, 0.00000000, 0.00000000
2, 1.5500, 155, 0.96497226, -0.06068937, -0.04853536, 11.79119396, 11.91151237, -19.12541580, 74.13037109, -18.44489861, 98.77228546, 106.82094574, 86.74192047, 122.55850983, 0.69176942, 0.07850385, -0.70856208, -0.11503109, 0.03335505, 0.00503607, 0.06415468, 0.00000000, 0.00000000, 0.00000000, 0.00000000
1, 1.4900, 149, 0.00023038, -0.97011870, 0.01834179, 13.40772438, 61.10131836, 158.11138916, -72.96112061, -17.04179955, -75.38731384, 94.38746643, -48.81680679, 123.71981049, -0.02450069, 0.56270009, 0.45667845, 0.68863136, -0.74603319, 0.30608168, 0.03429731, 0.00000000, 0.00000000, 0.00000000, 0.00000000
1, 1.5000, 150, -0.36403033, -0.62428248, 0.35015845, 15.08685398, 25.62569046, 136.95451355, -72.84420013, -16.86641312, -75.38731384, 94.36289978, -50.20178604, 123.95220184, -0.01450164, 0.56660879, 0.45088920, 0.68952382, -0.39871520, -0.02055179, -0.30152932, 0.00000000, 0.00000000, 0.00000000, 0.00000000
2, 1.5600, 156, 0.98723787, -0.05774538, -0.03303694, 2.59776258, 13.40751648, -18.76748657, 73.13651276, -17.24641991, 98.68459320, 110.19778442, 86.87741089, 125.91458130, 0.69114488, 0.07964174, -0.70926774, -0.11364544, 0.01123047, 0.00540121, 0.05091771, 0.00000000, 0.00000000, 0.00000000, 0.00000000
2, 1.5700, 157, 1.01926160, -0.12348761, 0.02772723, -11.57372379, 17.95765495, -18.73080063, 74.13037109, -17.86027527, 99.12306213, 114.50825500, 86.98243713, 130.34715271, 0.69013637, 0.08167685, -0.71010387, -0.11310704, -0.02068374, 0.07436988, -0.00703222, 0.00000000, 0.00000000, 0.00000000, 0.00000000
1, 1.5100, 151, -0.10431041, -0.85552794, 0.25432351, 0.03268722, -32.50721359, 113.83322906, -74.04267883, -14.70330334, -75.00730896, 94.87258911, -51.31019211, 123.29489136, -0.00892850, 0.57301450, 0.44519940, 0.68802053, -0.67183232, 0.22709392, -0.20291623, 0.00000000, 0.00000000, 0.00000000, 0.00000000
1, 1.5200, 152, 0.90079612, -0.96535563, 0.03059311, -12.57451248, -63.04922104, 76.99410248, -74.86115265, -16.13563347, -74.83191681, 95.63144684, -52.01916122, 122.16861725, -0.00737932, 0.57976103, 0.44053516, 0.68538421, -1.68667650, 0.34963405, 0.02653176, 0.00000000, 0.00000000, 0.00000000, 0.00000000
2, 1.5800, 158, 1.03490019, -0.05957091, 0.09716654, -17.45008278, 18.43527412, -19.70597458, 73.63343811, -17.77258110, 98.65536499, 119.40544891, 87.07052612, 135.42752075, 0.68899488, 0.08415677, -0.71096015, -0.11286902, -0.03623379, 0.01376916, -0.07337688, 0.00000000, 0.00000000, 0.00000000, 0.00000000
2, 1.5900, 159, 1.01807296, -0.02728387, 0.15159363, -18.81618309, 18.55756950, -19.59184647, 73.01958466, -17.12949371, 98.71382904, 124.38105011, 87.13880157, 140.59785461, 0.68789542, 0.08668611, -0.71174377, -0.11272170, -0.01934096, -0.01515629, -0.12454946, 0.00000000, 0.00000000, 0.00000000, 0.00000000
2, 1.6000, 160, 1.00793386, -0.04871351, 0.16441274, -17.67383575, 16.78144455, -19.13948059, 73.01958466, -17.12949371, 98.71382904, 129.23506165, 87.19162750, 145.63481140, 0.68690515, 0.08910061, -0.71242994, -0.11254320, -0.00915111, 0.00955323, -0.13444307, 0.00000000, 0.00000000, 0.00000000, 0.00000000
1, 1.5300, 153, 0.88961220, -0.68372184, 0.16068731, -31.68345070, -126.93466187, 34.11332321, -74.86115265, -16.13563347, -74.83191681, 96.98558807, -52.21863174, 120.05247498, -0.01181926, 0.58860433, 0.43680659, 0.68015099, -1.67945671, 0.07430755, -0.09182511, 0.00000000, 0.00000000, 0.00000000, 0.00000000
1, 1.5400, 154, 0.45398882, -0.75432467, 0.37049180, -40.21553040, -144.04255676, 13.79788780, -76.08885956, -12.83250523, -74.07190704, 98.46392822, -52.12766647, 117.70855713, -0.01859886, 0.59743577, 0.43387750, 0.67414767, -1.24403763, 0.14713338, -0.28610015, 0.00000000, 0.00000000, 0.00000000, 0.00000000
1, 1.5500, 155, 0.62756371, -0.83427745, 0.37388065, -40.48815536, -134.32945251, -8.99254799, -75.91347504, -12.80327415, -72.84420013, 99.73792267, -51.82625580, 115.57807159, -0.02632165, 0.60488766, 0.43171716, 0.66860932, -1.41516042, 0.22615877, -0.27455139, 0.00000000, 0.00000000, 0.00000000, 0.00000000
1, 1.5600, 156, 0.58614093, -0.72816515, 0.28037319, -43.13851547, -129.07664490, -30.46236610, -76.46886444, -12.80327415, -72.40573120, 100.83857727, -51.29584885, 113.62256622, -0.03523609, 0.61112750, 0.43048173, 0.66330022, -1.36882448, 0.11606090, -0.16760296, 0.00000000, 0.00000000, 0.00000000, 0.00000000
1, 1.5700, 157, 0.50807637, -0.65637761, 0.24609150, -44.75781250, -122.99217987, -47.48072052, -76.90733337, -13.00789261, -71.49955750, 101.76338196, -50.58906937, 111.85588837, -0.04498731, 0.61628097, 0.43001631, 0.65822482, -1.28382993, 0.03788459, -0.12098326, 0.00000000, 0.00000000, 0.00000000, 0.00000000
1, 1.5800, 158, 0.51479882, -0.60505128, 0.24047951, -44.88806534, -117.26956177, -66.79790497, -76.90733337, -13.00789261, -71.49955750, 102.51979828, -49.68925858, 110.28616333, -0.05563411, 0.62028724, 0.43053880, 0.65328783, -1.28128815, -0.02256347, -0.10421439, 0.00000000, 0.00000000, 0.00000000, 0.00000000
2, 1.6100, 161, 0.98523593, -0.02852543, 0.15296175, -18.49635887, 13.97673988, -18.31533813, 72.87342834, -16.89564514, 99.41537476, 133.69569397, 87.23632050, 150.28590393, 0.68606991, 0.09148497, -0.71294147, -0.11248631, 0.01358669, -0.00747780, -0.12046441, 0.00000000, 0.00000000, 0.00000000, 0.00000000
1, 1.5900, 159, 0.48603764, -0.53332394, 0.23846267, -46.15856171, -112.13181305, -85.36151123, -76.46886444, -14.41099072, -71.00263214, 103.10991669, -48.58472824, 108.91723633, -0.06724783, 0.62309408, 0.43217552, 0.64842576, -1.24098492, -0.10587558, -0.09202136, 0.00000000, 0.00000000, 0.00000000, 0.00000000
2, 1.6200, 162, 1.00208390, -0.01819322, 0.11489804, -18.80251503, 10.48637581, -17.60216141, 73.22420502, -17.10026360, 100.20462036, 137.67129517, 87.28418732, 154.45429993, 0.68543810, 0.09380849, -0.71324217, -0.11251830, -0.00322218, -0.01481497, -0.08047653, 0.00000000, 0.00000000, 0.00000000, 0.00000000
2, 1.6300, 163, 1.00773787, -0.00702138, 0.07604088, -17.05893326, 9.03909779, -17.47175407, 74.01344299, -16.72025681, 99.12306213, 141.66473389, 87.32792664, 158.62176514, 0.68489045, 0.09601896, -0.71348727, -0.11243418, -0.00883751, -0.02303261, -0.04006699, 0.00000000, 0.00000000, 0.00000000, 0.00000000
1, 1.6000, 160, 0.41382629, -0.48234308, 0.22837952, -47.20432663, -99.61553192, -105.82814026, -75.79654694, -13.24174213, -70.33031464, 103.44412994, -47.32579422, 107.83230591, -0.07955174, 0.62440795, 0.43463922, 0.64410800, -1.15475154, -0.17109239, -0.07342050, 0.00000000, 0.00000000, 0.00000000, 0.00000000
1, 1.6100, 161, 0.34042844, -0.46577951, 0.19867383, -47.58512115, -82.06965637, -128.13966370, -74.33499146, -15.14177132, -69.89184570, 103.49742126, -45.88829803, 107.10493469, -0.09245003, 0.62377059, 0.43833864, 0.64048612, -1.06507468, -0.20426743, -0.03781829, 0.00000000, 0.00000000, 0.00000000, 0.00000000
1, 1.6200, 162, 0.26565468, -0.47646913, 0.14671996, -47.33010483, -63.28853226, -149.74050903, -74.21806335, -15.49254608, -69.59953308, 103.29434967, -44.28486633, 106.72413635, -0.10580426, 0.62113112, 0.44328928, 0.63757068, -0.97148824, -0.21261258, 0.01729911, 0.00000000, 0.00000000, 0.00000000, 0.00000000
2, 1.6400, 164, 1.01443565, -0.02291853, 0.02614661, -16.05202103, 10.20508957, -17.67403030, 73.10727692, -16.39871407, 99.29844666, 145.87065125, 87.35021210, 162.99296570, 0.68429220, 0.09817867, -0.71378976, -0.11229143, -0.01550986, -0.00414709, 0.01145578, 0.00000000, 0.00000000, 0.00000000, 0.00000000
2, 1.6500, 165, 1.02444601, -0.02666895, 0.00831804, -17.59046173, 13.27721119, -18.71994019, 73.10727692, -16.39871407, 99.29844666, 150.63220215, 87.33584595, 167.93563843, 0.68349570, 0.10052495, -0.71424764, -0.11215504, -0.02551961, 0.00268272, 0.03129462, 0.00000000, 0.00000000, 0.00000000, 0.00000000
2, 1.6600, 166, 1.00756204, -0.04689491, 0.03383764, -19.77142906, 17.21438789, -20.15838432, 72.69804382, -17.01256943, 100.17538452, 155.90490723, 87.27252960, 173.41212463, 0.68244362, 0.10312878, -0.71490127, -0.11203349, -0.00867215, 0.02618986, 0.00845368, 0.00000000, 0.00000000, 0.00000000, 0.00000000
1, 1.6300, 163, 0.21653767, -0.52818429, 0.05342113, -46.84049225, -46.99293137, -171.91696167, -74.21806335, -15.49254608, -69.59953308, 102.89100647, -42.50385284, 106.62998962, -0.11971073, 0.61658365, 0.44951263, 0.63516331, -0.90089142, -0.18207543, 0.11123312, 0.00000000, 0.00000000, 0.00000000, 0.00000000
2, 1.6700, 167, 0.99129158, -0.04044326, 0.06978106, -22.53520775, 20.21236992, -21.73668098, 72.23033905, -16.57410049, 100.55538940, 161.36302185, 87.16347504, 179.10231018, 0.68118870, 0.10602398, -0.71568525, -0.11196235, 0.00752083, 0.02324840, -0.02421710, 0.00000000, 0.00000000, 0.00000000, 0.00000000
2, 1.6800, 168, 0.98319709, -0.01080340, 0.08519378, -22.88165474, 21.52733231, -23.60141945, 73.37036133, -17.65565681, 100.20462036, 166.80513000, 87.01826477, -175.21965027, 0.67984045, 0.10907849, -0.71653658, -0.11177796, 0.01550052, -0.00257648, -0.03598191, 0.00000000, 0.00000000, 0.00000000, 0.00000000
2, 1.6900, 169, 0.98384315, 0.02652730, 0.06658936, -19.22646904, 20.33389091, -24.76049042, 72.11341858, -16.25255775, 100.08769226, 171.87220764, 86.86415863, -169.95278931, 0.67862397, 0.11196527, -0.71731579, -0.11131711, 0.01471362, -0.03583305, -0.01371640, 0.00000000, 0.00000000, 0.00000000, 0.00000000
2, 1.7000, 170, 1.00139272, 0.03826212, 0.04246104, -13.06127357, 16.49224281, -25.88849449, 72.11341858, -16.25255775, 100.08769226, 176.63787842, 86.72580719, -165.04882813, 0.67771274, 0.11451925, -0.71790940, -0.11044011, -0.00297755, -0.04327914, 0.01357367, 0.00000000, 0.00000000, 0.00000000, 0.00000000
1, 1.6400, 164, 0.15190633, -0.60694969, -0.05943430, -48.21866989, -29.32896614, -194.42652893, -73.04881287, -17.07103157, -69.74568939, 102.27798462, -40.52736282, 106.83142090, -0.13425691, 0.60986054, 0.45704380, 0.63336897, -0.81168759, -0.12657265, 0.22232570, 0.00000000, 0.00000000, 0.00000000, 0.00000000
2, 1.7100, 171, 1.01809978, 0.04826491, 0.06435390, -3.82491398, 12.32750130, -26.65117073, 71.32417297, -16.89564514, 100.14615631, -178.78446960, 86.60751343, -160.42500305, 0.67715698, 0.11653363, -0.71833259, -0.10897996, -0.01980640, -0.04874982, -0.00597598, 0.00000000, 0.00000000, 0.00000000, 0.00000000
1, 1.6500, 165, 0.06755061, -0.69294792, -0.16293126, -49.70985031, -18.17706490, -211.34320068, -71.09032440, -18.12335587, -69.83338165, 101.56806183, -38.42189026, 107.16660309, -0.14928228, 0.60174412, 0.46525013, 0.63179195, -0.69984633, -0.06522327, 0.32187754, 0.00000000, 0.00000000, 0.00000000, 0.00000000
1, 1.6600, 166, -0.02320503, -0.79063129, -0.23714793, -51.45916748, -7.29495573, -227.04489136, -69.68722534, -19.29260445, -70.06723022, 100.77320862, -36.18024826, 107.62950897, -0.16476533, 0.59213465, 0.47414619, 0.63040805, -0.57900965, 0.00724725, 0.39049679, 0.00000000, 0.00000000, 0.00000000, 0.00000000
2, 1.7200, 172, 1.00726163, 0.02264741, 0.08143443, 1.51581192, 12.08874893, -26.63448715, 71.90879822, -15.75562668, 101.16925049, -174.48889160, 86.47111511, -156.13676453, 0.67666578, 0.11822828, -0.71878815, -0.10718772, -0.00910196, -0.01848099, -0.02095511, 0.00000000, 0.00000000, 0.00000000, 0.00000000
2, 1.7300, 173, 0.99871880, 0.01724804, 0.09360957, 3.78517675, 12.47744560, -26.69990921, 72.43495941, -15.63870239, 100.58462524, -170.52722168, 86.30702972, -152.20367432, 0.67613369, 0.11980913, -0.71931350, -0.10524848, -0.00072253, -0.00841029, -0.03097441, 0.00000000, 0.00000000, 0.00000000, 0.00000000
2, 1.7400, 174, 0.98992676, -0.00067474, 0.11122714, 4.33453417, 12.41166592, -26.99318123, 71.96726227, -15.49254608, 100.14615631, -166.84602356, 86.13226318, -148.55789185, 0.67564541, 0.12136140, -0.71980101, -0.10325359, 0.00787218, 0.01423927, -0.04633353, 0.00000000, 0.00000000, 0.00000000, 0.00000000
1, 1.6700, 167, -0.09975956, -0.90096849, -0.29930529, -53.44750977, 6.03490877, -241.68278503, -66.96871948, -19.29260445, -69.83338165, 99.89400482, -33.81334305, 108.23112488, -0.18053173, 0.58089733, 0.48367283, 0.62930703, -0.46962178, 0.09204647, 0.44525844, 0.00000000, 0.00000000, 0.00000000, 0.00000000
1, 1.6800, 168, -0.16381344, -1.02141511, -0.34215081, -54.55902863, 20.31535721, -254.39912415, -66.96871948, -20.25723457, -69.83338165, 98.95455170, -31.33683968, 108.96315002, -0.19636117, 0.56803560, 0.49376920, 0.62846637, -0.37011188, 0.18711165, 0.47889429, 0.00000000, 0.00000000, 0.00000000, 0.00000000
1, 1.6900, 169, -0.23697284, -1.15008163, -0.34469217, -55.10207367, 32.08089066, -265.42114258, -66.17948151, -21.71879578, -71.23648071, 97.98632050, -28.75478554, 109.78835297, -0.21223170, 0.55367714, 0.50432473, 0.62773883, -0.25893629, 0.29101634, 0.47080222, 0.00000000, 0.00000000, 0.00000000, 0.00000000
2, 1.7500, 175, 0.97958422, 0.00424183, 0.12203282, 3.05822515, 11.26403904, -27.95982170, 71.44110107, -14.82022762, 100.55538940, -163.32913208, 85.95139313, -145.06327820, 0.67521977, 0.12303846, -0.72019404, -0.10129333, 0.01800375, 0.01415471, -0.05511753, 0.00000000, 0.00000000, 0.00000000, 0.00000000
2, 1.7600, 176, 0.98497379, 0.01816764, 0.12533316, 1.81608450, 9.93796349, -29.60830879, 71.44110107, -14.82022762, 100.55538940, -159.86474609, 85.76351929, -141.60798645, 0.67487389, 0.12487973, -0.72047508, -0.09932752, 0.01238397, 0.00530008, -0.05659760, 0.00000000, 0.00000000, 0.00000000, 0.00000000
2, 1.7700, 177, 0.99647582, 0.01582704, 0.12698910, 1.08788466, 8.49531651, -31.58591461, 72.46418762, -15.52177715, 101.02309418, -156.40359497, 85.56697083, -138.14784241, 0.67462265, 0.12687474, -0.72063774, -0.09730598, 0.00063181, 0.01301965, -0.05669077, 0.00000000, 0.00000000, 0.00000000, 0.00000000
1, 1.7000, 170, -0.33591264, -1.27398205, -0.34993166, -54.95272827, 46.70547104, -276.40087891, -63.02250671, -22.27418900, -72.58111572, 97.01018524, -26.07513428, 110.71607208, -0.22790295, 0.53776753, 0.51538122, 0.62709540, -0.11936602, 0.39110601, 0.46421888, 0.00000000, 0.00000000, 0.00000000, 0.00000000
1, 1.7100, 171, -0.38833919, -1.39574289, -0.36501023, -52.76797485, 62.50418091, -284.02395630, -61.00555420, -22.80035019, -72.81496429, 96.04861450, -23.32424355, 111.75482178, -0.24303277, 0.52034789, 0.52689511, 0.62654197, -0.02410408, 0.49055314, 0.46661025, 0.00000000, 0.00000000, 0.00000000, 0.00000000
1, 1.7200, 172, -0.41584906, -1.51498675, -0.39951596, -50.19011307, 70.78353119, -288.98468018, -61.00555420, -22.80035019, -72.81496429, 95.14981079, -20.51714134, 112.81788635, -0.25777149, 0.50194836, 0.53859150, 0.62571627, 0.04819126, 0.58938545, 0.48831522, 0.00000000, 0.00000000, 0.00000000, 0.00000000
1, 1.7300, 173, -0.44437519, -1.61295438, -0.43238246, -47.43718338, 73.45988464, -291.60516357, -58.46243668, -25.60654831, -72.87342834, 94.33833313, -17.67176628, 113.84753418, -0.27222776, 0.48299024, 0.55023479, 0.62438315, 0.12311455, 0.66916758, 0.50887358, 0.00000000, 0.00000000, 0.00000000, 0.00000000
2, 1.7800, 178, 1.00259352, 0.02300370, 0.13916078, 0.29014909, 6.55655575, -33.62355804, 72.81496429, -14.52791595, 101.11078644, -152.98240662, 85.35411835, -134.71591187, 0.67442560, 0.12905492, -0.72071099, -0.09524003, -0.00576242, 0.01156144, -0.06753480, 0.00000000, 0.00000000, 0.00000000, 0.00000000
1, 1.7400, 174, -0.50095153, -1.68686986, -0.45600715, -45.48446274, 70.72425842, -292.60534668, -55.86085892, -25.75270271, -74.21806335, 93.61585999, -14.80224037, 114.79402161, -0.28660193, 0.46383137, 0.56155777, 0.62239277, 0.22736630, 0.72733510, 0.52109426, 0.00000000, 0.00000000, 0.00000000, 0.00000000
1, 1.7500, 175, -0.58188343, -1.74851251, -0.43431613, -44.49674225, 65.72862244, -292.13482666, -53.66851807, -27.27272606, -74.74422455, 92.97483063, -11.92352295, 115.64096069, -0.30094767, 0.44467282, 0.57241124, 0.61971128, 0.35690248, 0.77578348, 0.48886320, 0.00000000, 0.00000000, 0.00000000, 0.00000000
1, 1.7600, 176, -0.71051961, -1.80244219, -0.38347548, -44.03517151, 63.34287262, -288.84292603, -50.89155197, -27.71119499, -75.53347015, 92.39205933, -9.06791115, 116.42189789, -0.31500882, 0.42551339, 0.58270574, 0.61657274, 0.53455830, 0.81916505, 0.42822605, 0.00000000, 0.00000000, 0.00000000, 0.00000000
2, 1.7900, 179, 1.01397181, 0.04528385, 0.13638809, 1.37644327, 3.83521199, -35.29355621, 72.11341858, -13.53405380, 101.25694275, -149.46575928, 85.15045166, -131.20094299, 0.67448992, 0.13122503, -0.72054720, -0.09303275, -0.01744159, -0.00466151, -0.06376307, 0.00000000, 0.00000000, 0.00000000, 0.00000000
2, 1.8000, 180, 1.02606094, 0.06478559, 0.11171660, 4.13373995, 0.60226977, -36.33209610, 70.94416809, -14.08944702, 101.49079132, -145.91496277, 84.95102692, -127.67838287, 0.67479104, 0.13327056, -0.72019643, -0.09062703, -0.02982752, -0.01786867, -0.03881447, 0.00000000, 0.00000000, 0.00000000, 0.00000000
1, 1.7700, 177, -0.85549843, -1.84695017, -0.30790168, -42.94375229, 61.38826370, -281.42797852, -50.89155197, -27.71119499, -75.53347015, 91.86580658, -6.27838326, 117.14629364, -0.32852098, 0.40658394, 0.59234357, 0.61310077, 0.72812462, 0.85583162, 0.34352553, 0.00000000, 0.00000000, 0.00000000, 0.00000000
1, 1.7800, 178, -1.04198122, -1.86205769, -0.22916463, -40.30964661, 61.80939484, -271.07592773, -48.99152374, -28.14966393, -75.38731384, 91.40285492, -3.58631492, 117.84387970, -0.34115934, 0.38798970, 0.60139900, 0.60942072, 0.96202201, 0.86572230, 0.25648385, 0.00000000, 0.00000000, 0.00000000, 0.00000000
2, 1.8100, 181, 1.02832854, 0.07657573, 0.09573908, 7.74095154, -1.88293934, -37.09233475, 70.94416809, -14.08944702, 101.49079132, -142.37879944, 84.74900818, -124.20561218, 0.67528915, 0.13513038, -0.71971130, -0.08797775, -0.03240502, -0.02317492, -0.02306784, 0.00000000, 0.00000000, 0.00000000, 0.00000000
2, 1.8200, 182, 1.03750658, 0.07794724, 0.08279060, 11.75579357, -4.13123274, -37.72426987, 71.87957001, -14.41099072, 101.14001465, -138.86976624, 84.54158783, -120.79927063, 0.67597294, 0.13677450, -0.71910876, -0.08506458, -0.04191241, -0.01790795, -0.01079128, 0.00000000, 0.00000000, 0.00000000, 0.00000000
2, 1.8300, 183, 1.04495704, 0.07528656, 0.08654153, 15.85590363, -5.72106552, -38.83375931, 72.28880310, -12.68634892, 100.43846893, -135.40702820, 84.31819916, -117.47870636, 0.67679322, 0.13823695, -0.71843034, -0.08185007, -0.04972357, -0.00839839, -0.01560230, 0.00000000, 0.00000000, 0.00000000, 0.00000000
2, 1.8400, 184, 1.03805232, 0.06669940, 0.10253084, 19.66740799, -6.07136869, -40.22325897, 71.29494476, -12.24788094, 100.43846893, -132.04423523, 84.06927490, -114.29627991, 0.67769325, 0.13955271, -0.71772122, -0.07831405, -0.04323531, 0.00730069, -0.03282771, 0.00000000, 0.00000000, 0.00000000, 0.00000000
2, 1.8500, 185, 1.03486502, 0.05268849, 0.09622382, 21.95233917, -6.69902992, -42.25478363, 71.00263214, -12.04326248, 100.26307678, -128.76890564, 83.79094696, -111.22325897, 0.67866302, 0.14085400, -0.71695423, -0.07452109, -0.04053206, 0.02875869, -0.02793497, 0.00000000, 0.00000000, 0.00000000, 0.00000000
1, 1.7900, 179, -1.22648203, -1.84195602, -0.15617725, -33.91898727, 66.51175690, -257.18212891, -45.89301300, -29.11429405, -76.49810028, 91.03452301, -1.03238797, 118.56150818, -0.35239694, 0.36987099, 0.61009926, 0.60563254, 1.19198108, 0.84283578, 0.17648679, 0.00000000, 0.00000000, 0.00000000, 0.00000000
1, 1.8000, 180, -1.40388870, -1.77136314, -0.10535938, -26.53786850, 71.20398712, -240.77734375, -44.05144501, -29.87430573, -76.61502075, 90.77152252, 1.36395431, 119.31118011, -0.36210203, 0.35238549, 0.61851025, 0.60179037, 1.41224170, 0.77157915, 0.12040164, 0.00000000, 0.00000000, 0.00000000, 0.00000000
1, 1.8100, 181, -1.64669883, -1.60410285, -0.01777408, -18.92179680, 75.77265930, -221.00392151, -40.45600510, -30.04969215, -77.14118958, 90.61658478, 3.56478524, 120.09606171, -0.37012404, 0.33580941, 0.62657964, 0.59802866, 1.69480693, 0.60538453, 0.02936304, 0.00000000, 0.00000000, 0.00000000, 0.00000000
1, 1.8200, 182, -1.75225186, -1.41004229, 0.10221441, -8.28721333, 89.95309448, -198.61958313, -40.45600510, -30.04969215, -77.14118958, 90.60774231, 5.54143095, 121.01937866, -0.37574634, 0.31992996, 0.63476241, 0.59458923, 1.83623540, 0.41367507, -0.09178758, 0.00000000, 0.00000000, 0.00000000, 0.00000000
2, 1.8600, 186, 1.04195678, 0.05313193, 0.08496651, 21.92896271, -7.27546406, -44.96386337, 71.00263214, -12.04326248, 100.26307678, -125.59431458, 83.47649384, -108.24963379, 0.67967349, 0.14231983, -0.71610636, -0.07057481, -0.04819629, 0.03619736, -0.01822060, 0.00000000, 0.00000000, 0.00000000, 0.00000000
2, 1.8700, 187, 1.05937088, 0.09196376, 0.08427878, 21.85432816, -8.51948547, -47.73537827, 71.99649048, -11.89710617, 99.97076416, -122.49842072, 83.12858582, -105.35253143, 0.68076396, 0.14395265, -0.71513504, -0.06648283, -0.06627864, 0.00570170, -0.01929322, 0.00000000, 0.00000000, 0.00000000, 0.00000000
1, 1.8300, 183, -1.82852387, -1.18713343, 0.19046448, 1.46921837, 106.79692078, -173.91641235, -39.52060699, -30.92663002, -76.99503326, 90.74554443, 7.26804161, 122.11434174, -0.37875327, 0.30475664, 0.64309937, 0.59168631, 1.94418073, 0.19394907, -0.17865612, 0.00000000, 0.00000000, 0.00000000, 0.00000000
1, 1.8400, 184, -1.89070451, -1.00108802, 0.20191170, 10.34697914, 132.83906555, -144.79045105, -37.56211472, -31.04355431, -77.05348969, 91.03985596, 8.68853855, 123.47356415, -0.37842935, 0.29013821, 0.65175873, 0.58976412, 2.03300858, 0.01141644, -0.18603249, 0.00000000, 0.00000000, 0.00000000, 0.00000000
2, 1.8800, 188, 1.06318474, 0.10204035, 0.08756918, 22.88039970, -9.83828735, -50.30857849, 72.20111084, -10.66939449, 99.67845917, -119.51013947, 82.74755859, -102.57108307, 0.68193829, 0.14567752, -0.71405172, -0.06219589, -0.07087076, 0.00443300, -0.02456560, 0.00000000, 0.00000000, 0.00000000, 0.00000000
1, 1.8500, 185, -1.88228452, -0.90258849, 0.15216775, 15.91436100, 144.87988281, -115.39263153, -35.86670685, -31.36509705, -77.84273529, 91.43966675, 9.81099129, 124.96623230, -0.37567472, 0.27660918, 0.66020113, 0.58863425, 2.04586506, -0.08367808, -0.13007791, 0.00000000, 0.00000000, 0.00000000, 0.00000000
2, 1.8900, 189, 1.06682229, 0.11649340, 0.09882402, 22.86466408, -12.30923748, -52.45306778, 71.35340118, -10.34785175, 99.50306702, -116.56672668, 82.34236908, -99.83316040, 0.68327183, 0.14751674, -0.71276724, -0.05780536, -0.07538769, -0.00083247, -0.03822200, 0.00000000, 0.00000000, 0.00000000, 0.00000000
1, 1.8600, 186, -1.85612762, -0.86339009, 0.07904685, 16.61607361, 140.70761108, -84.08863831, -35.86670685, -31.36509705, -77.84273529, 91.86399078, 10.61097908, 126.41992950, -0.37144685, 0.26505506, 0.66763085, 0.58825344, 2.03555131, -0.11993559, -0.04972146, 0.00000000, 0.00000000, 0.00000000, 0.00000000
1, 1.8700, 187, -1.80434954, -0.86777246, 0.00966233, 10.88088036, 119.65615082, -51.45435715, -34.40514374, -31.21894073, -77.84273529, 92.20581818, 11.08266163, 127.65608978, -0.36683995, 0.25625202, 0.67321646, 0.58867908, 1.99400401, -0.11342455, 0.02607156, 0.00000000, 0.00000000, 0.00000000, 0.00000000
1, 1.8800, 188, -1.74764550, -0.85425973, 0.01873140, 4.89908504, 93.62432861, -16.11914253, -33.11896896, -31.27740479, -77.55042267, 92.44078827, 11.20571995, 128.61619568, -0.36204436, 0.25064510, 0.67680448, 0.58994627, 1.94166374, -0.12590545, 0.02166415, 0.00000000, 0.00000000, 0.00000000, 0.00000000
1, 1.8900, 189, -1.64186132, -0.81616277, 0.08924341, 2.27182102, 74.55110931, 20.24693680, -32.94358444, -31.62817764, -76.64425659, 92.60892487, 10.95503616, 129.35577393, -0.35650685, 0.24822204, 0.67877108, 0.59207988, 1.83414090, -0.16420428, -0.04558094, 0.00000000, 0.00000000, 0.00000000, 0.00000000
2, 1.9000, 190, 1.07513320, 0.11597579, 0.10942139, 22.92044830, -14.83392429, -54.45845032, 72.08418274, -11.04940033, 100.05846405, -113.69367218, 81.91216278, -97.16417694, 0.68475437, 0.14946066, -0.71128732, -0.05332270, -0.08468541, 0.00921938, -0.05170561, 0.00000000, 0.00000000, 0.00000000, 0.00000000
2, 1.9100, 191, 1.09630620, 0.11766474, 0.10513313, 21.59418297, -17.49863434, -56.00523758, 72.08418274, -11.04940033, 100.05846405, -110.91526794, 81.46029663, -94.57449341, 0.68637246, 0.15156308, -0.70960134, -0.04886315, -0.10695584, 0.01732091, -0.05076598, 0.00000000, 0.00000000, 0.00000000, 0.00000000
2, 1.9200, 192, 1.11630094, 0.12074094, 0.09758642, 21.43600655, -19.59569931, -57.90131760, 71.76264191, -9.38322163, 99.56153107, -108.24877930, 80.98033905, -92.09336090, 0.68810534, 0.15377864, -0.70774186, -0.04432603, -0.12817487, 0.02430533, -0.04700162, 0.00000000, 0.00000000, 0.00000000, 0.00000000
1, 1.9000, 190, -1.47138691, -0.82709801, 0.15170655, 1.54151058, 57.48642349, 51.40032196, -32.91435242, -32.70973206, -76.20578766, 92.72858429, 10.41481686, 129.91578674, -0.35040364, 0.24834007, 0.67951244, 0.59481704, 1.65604591, -0.15461904, -0.10561588, 0.00000000, 0.00000000, 0.00000000, 0.00000000
1, 1.9100, 191, -1.28360116, -0.85285038, 0.19414590, 1.57380629, 40.96838379, 73.35414124, -32.91435242, -32.70973206, -76.20578766, 92.81072235, 9.66234493, 130.29534912, -0.34412277, 0.25060540, 0.67924017, 0.59783727, 1.45652163, -0.13091719, -0.14634024, 0.00000000, 0.00000000, 0.00000000, 0.00000000
1, 1.9200, 192, -1.11999393, -0.89063191, 0.22071691, 2.53181100, 29.73757362, 88.46999359, -33.14820099, -32.35895920, -76.81964111, 92.87725067, 8.76399136, 130.55178833, -0.33767745, 0.25436604, 0.67830884, 0.60097349, 1.27832568, -0.09552036, -0.17157495, 0.00000000, 0.00000000, 0.00000000, 0.00000000
1, 1.9300, 193, -0.97811502, -0.93382436, 0.30987325, 3.72584224, 19.79186440, 101.46820831, -34.22975540, -31.71587181, -76.81964111, 92.93589783, 7.74059296, 130.69953918, -0.33108765, 0.25943407, 0.67680848, 0.60415667, 1.11963201, -0.05481824, -0.25954515, 0.00000000, 0.00000000, 0.00000000, 0.00000000
